VRU_ACC_X
0.0480000004172325
0.0759999975562096
0.0610000006854534
0.0659999996423721
0.0810000002384186
0.0759999975562096
0.0850000008940697
0.0509999990463257
0.0590000003576279
0.0689999982714653
0.0820000022649765
0.0480000004172325
0.0610000006854534
0.101000003516674
0.0579999983310699
0.0790000036358833
0.0379999987781048
0.0509999990463257
0.133000001311302
0.0549999997019768
0.0430000014603138
0.0920000001788139
0.0640000030398369
0.115000002086163
0.0989999994635582
0.0230000000447035
0.0879999995231628
0.0599999986588955
0.100000001490116
0.0540000014007092
0.025000000372529
0.0610000006854534
0.0390000008046627
0.0599999986588955
0.0640000030398369
0.0379999987781048
0.0860000029206276
0.0920000001788139
0.104000002145767
0.0579999983310699
0.0299999993294477
0.0939999967813492
0.101000003516674
0.0710000023245811
0.0399999991059303
0.0599999986588955
0.046000000089407
0.0610000006854534
0.0710000023245811
0.0659999996423721
0.0839999988675117
0.0670000016689301
0.096000000834465
0.0970000028610229
0.0689999982714653
0.0450000017881393
0.0350000001490116
0.0610000006854534
0.0820000022649765
0.0209999997168779
0.0900000035762787
0.0579999983310699
0.0280000008642673
0.0740000009536743
0.0489999987185001
0.0480000004172325
0.0939999967813492
0.0579999983310699
0.118000000715256
0.0979999974370003
0.0729999989271164
0.129999995231628
0.120999999344349
0.0109999999403954
0.0780000016093254
0.0480000004172325
0.0930000022053719
0.0410000011324883
-0.00700000021606684
0.0219999998807907
0.0740000009536743
0.0450000017881393
0.0489999987185001
0.0329999998211861
0.0640000030398369
0.0590000003576279
0.0799999982118607
0.109999999403954
0.0570000000298023
0.0500000007450581
0.103000000119209
0.0689999982714653
0.0829999968409538
0.0480000004172325
0.0659999996423721
0.0989999994635582
0.0529999993741512
0.096000000834465
0.0689999982714653
0.0430000014603138
0.0740000009536743
0.0230000000447035
0.0509999990463257
0.061999998986721
0.0130000002682209
0.0590000003576279
0.0309999994933605
0.0299999993294477
0.0890000015497208
0.0410000011324883
0.0790000036358833
0.0610000006854534
0.0560000017285347
0.131999999284744
0.0939999967813492
0.0649999976158142
0.103000000119209
0.0700000002980232
0.0869999974966049
0.0219999998807907
0
0.0480000004172325
0.0670000016689301
0.0649999976158142
0.0829999968409538
0.0509999990463257
0.0879999995231628
0.0949999988079071
0.025000000372529
0.0719999969005585
0.0729999989271164
0.0790000036358833
0.0810000002384186
0.046000000089407
0.0599999986588955
0.0780000016093254
0.0740000009536743
0.0299999993294477
0.0649999976158142
0.0590000003576279
0.119000002741814
0.0949999988079071
0.0299999993294477
0.0370000004768372
-0.00600000005215406
0.0240000002086163
0.0209999997168779
0.0160000007599592
0.068000003695488
0.118000000715256
0.0750000029802322
0.061999998986721
0.0430000014603138
0.0579999983310699
0.0500000007450581
0.0430000014603138
0.090999998152256
0.0979999974370003
0.025000000372529
0.0260000005364418
0.0579999983310699
0.0189999993890524
0.100000001490116
0.0520000010728836
0.0610000006854534
0.0869999974966049
0.061999998986721
0.0759999975562096
0.0719999969005585
0.0869999974966049
0.0649999976158142
0.0850000008940697
0.017000000923872
0.0489999987185001
0.112000003457069
0.0839999988675117
0.0509999990463257
0.0930000022053719
0.111000001430511
0.123000003397465
0.0649999976158142
0.034000001847744
0.0489999987185001
0.0610000006854534
0.0560000017285347
0.0729999989271164
0.0829999968409538
0.0320000015199184
0.122000001370907
0.0710000023245811
0.0949999988079071
0.0480000004172325
0.0560000017285347
0.0610000006854534
0.0549999997019768
0.0590000003576279
0.0750000029802322
-0.00700000021606684
0.0469999983906746
0.0850000008940697
0.0740000009536743
0.120999999344349
0.0560000017285347
0.0379999987781048
0.0820000022649765
0.034000001847744
0.046000000089407
0.0729999989271164
0.0700000002980232
0.125
0.0970000028610229
0.0700000002980232
0.068000003695488
0.0450000017881393
0.061999998986721
0.0850000008940697
0.063000001013279
0.0509999990463257
0.0260000005364418
0.0700000002980232
0.104000002145767
0.0640000030398369
0.0590000003576279
0.0750000029802322
0.0350000001490116
0.127000004053116
0.0199999995529652
0.0560000017285347
0.0649999976158142
0.0329999998211861
0.0850000008940697
0.034000001847744
0.0270000007003546
0.103000000119209
0.0689999982714653
0.0939999967813492
0.0799999982118607
0.046000000089407
0.111000001430511
0.142000004649162
0.0280000008642673
0.0260000005364418
0.061999998986721
0.0979999974370003
0.0659999996423721
0.0500000007450581
0.0670000016689301
0.0350000001490116
0.0540000014007092
0.0879999995231628
0.0189999993890524
0.0839999988675117
0.0379999987781048
0.0329999998211861
0.104000002145767
0.046000000089407
0.0670000016689301
0.0750000029802322
0.0219999998807907
0.0350000001490116
0.0280000008642673
0.0649999976158142
0.115000002086163
0.046000000089407
0.0140000004321337
0.103000000119209
0.0240000002086163
0.0179999992251396
0.0469999983906746
0.0649999976158142
0.0810000002384186
0.061999998986721
0.0890000015497208
0.068000003695488
0.0549999997019768
0.0520000010728836
0.100000001490116
0.0240000002086163
0.0769999995827675
0.0920000001788139
0.0480000004172325
0.101999998092651
0.0610000006854534
0.0640000030398369
0.0710000023245811
0.0939999967813492
0.0640000030398369
0.0430000014603138
0.0399999991059303
0.0419999994337559
0.0599999986588955
0.0780000016093254
0.112999998033047
0.0509999990463257
0.0860000029206276
0.108999997377396
0.0979999974370003
0.0590000003576279
0.0489999987185001
0.096000000834465
0.0890000015497208
0.0410000011324883
0.034000001847744
0.0710000023245811
0.0900000035762787
0.0799999982118607
0.0649999976158142
0.028999999165535
0.104999996721745
0.0379999987781048
0.0879999995231628
0.108999997377396
0.0430000014603138
0.0640000030398369
0.063000001013279
0.0879999995231628
0.0920000001788139
0.0729999989271164
0.0759999975562096
0.0520000010728836
0.0759999975562096
0.0469999983906746
0.0390000008046627
0.0309999994933605
0.0439999997615814
0.0359999984502792
0.0529999993741512
-0.00400000018998981
0.0399999991059303
0.0860000029206276
0.0649999976158142
0.0560000017285347
0.11599999666214
0.0140000004321337
0.0359999984502792
0.0989999994635582
0.0540000014007092
0.0939999967813492
0.0869999974966049
0.112000003457069
0.13400000333786
0.0430000014603138
0.0529999993741512
0.0989999994635582
0.0500000007450581
0.068000003695488
0.0979999974370003
0.0140000004321337
0.0149999996647239
0.0750000029802322
0.068000003695488
0.0860000029206276
0.0529999993741512
0.034000001847744
0
0.0890000015497208
0.0839999988675117
0.0350000001490116
0.0949999988079071
0.101999998092651
0.0670000016689301
0.025000000372529
0.0320000015199184
0.0780000016093254
0.0570000000298023
0.0390000008046627
0.10700000077486
0.028999999165535
0.0640000030398369
0.0570000000298023
0.0780000016093254
0.0920000001788139
0.0299999993294477
0.0790000036358833
0.159999996423721
0.0179999992251396
0.0670000016689301
0.0640000030398369
0.0419999994337559
0.0810000002384186
0.0759999975562096
0.0579999983310699
0.0740000009536743
0.0509999990463257
0.0750000029802322
0.0799999982118607
0.0529999993741512
0.0710000023245811
0.0509999990463257
0.0920000001788139
0.0640000030398369
0.0599999986588955
0.0509999990463257
0.101999998092651
0.0509999990463257
0.0799999982118607
0.0649999976158142
0.0599999986588955
0.046000000089407
0.0780000016093254
0.0970000028610229
0.0729999989271164
0.00400000018998981
0.0729999989271164
0.028999999165535
0.0529999993741512
0.0320000015199184
0.0309999994933605
0.0689999982714653
0.0439999997615814
0.0689999982714653
0.0820000022649765
0.112000003457069
0.0649999976158142
0.0670000016689301
0.0729999989271164
0.0560000017285347
0.0700000002980232
0.0659999996423721
0.0179999992251396
0.046000000089407
0.103000000119209
0.0799999982118607
0.0970000028610229
0.0790000036358833
0.112000003457069
0.0359999984502792
0.0719999969005585
0.0659999996423721
0.00400000018998981
0.0890000015497208
0.10700000077486
0.0430000014603138
0.0850000008940697
0.0230000000447035
0.0489999987185001
0.114000000059605
0.0570000000298023
0.0939999967813492
0.0869999974966049
0.0320000015199184
0.0480000004172325
0.00800000037997961
0.063000001013279
0.0599999986588955
0.046000000089407
0.143999993801117
0.0489999987185001
0.0820000022649765
0.0649999976158142
0.0329999998211861
0.108999997377396
0.0610000006854534
0.0640000030398369
0.0790000036358833
0.061999998986721
0.0549999997019768
0.0500000007450581
0.0480000004172325
0.0729999989271164
0.0520000010728836
0.0109999999403954
0.063000001013279
0.0469999983906746
0.0529999993741512
0.0439999997615814
0.0450000017881393
0.0729999989271164
0.104000002145767
0.0780000016093254
0.0590000003576279
0.028999999165535
0.00899999961256981
0.0869999974966049
0.0579999983310699
0.0419999994337559
0.0719999969005585
0.0850000008940697
0.0450000017881393
0.105999998748302
0.0419999994337559
0.0869999974966049
0.0329999998211861
0.0199999995529652
0.061999998986721
0.0560000017285347
0.0729999989271164
0.0640000030398369
0.0219999998807907
0.0399999991059303
0.0260000005364418
0.0810000002384186
0.0829999968409538
0.0549999997019768
0.143999993801117
0.0869999974966049
0.128000006079674
0.112999998033047
0.0450000017881393
0.0299999993294477
0.0469999983906746
0.0989999994635582
0.0610000006854534
0.0540000014007092
0.0790000036358833
0.0769999995827675
0.0480000004172325
0.0590000003576279
0.0740000009536743
0.0590000003576279
0.0860000029206276
0.0579999983310699
0.0750000029802322
0.0740000009536743
-0.0020000000949949
0.0689999982714653
0.0520000010728836
0.0390000008046627
0.0869999974966049
0.0989999994635582
0.0700000002980232
0.0900000035762787
0.028999999165535
0.0759999975562096
0.0670000016689301
-0.00499999988824129
0.0640000030398369
0.0329999998211861
0.028999999165535
0.0930000022053719
0.0179999992251396
0.0740000009536743
0.0949999988079071
0.0640000030398369
0.090999998152256
0.0480000004172325
0.034000001847744
0.123000003397465
0.00100000004749745
0.00400000018998981
0.115000002086163
0.0860000029206276
0.0780000016093254
0.090999998152256
0.0579999983310699
0.0689999982714653
0.0810000002384186
0.0869999974966049
0.0740000009536743
0.119000002741814
0.100000001490116
0.0359999984502792
0.0689999982714653
0.0549999997019768
0.0570000000298023
0.0379999987781048
0.0570000000298023
0.0370000004768372
0.108999997377396
0.0590000003576279
0.0390000008046627
0.10700000077486
0.068000003695488
0.151999995112419
0.0890000015497208
0.090999998152256
0.11599999666214
0.0659999996423721
0.061999998986721
0.0920000001788139
0.0189999993890524
0.0829999968409538
0.0270000007003546
0.00999999977648258
0.0230000000447035
0.0410000011324883
0.090999998152256
0.0879999995231628
0.10700000077486
0.0649999976158142
0.0820000022649765
0.0560000017285347
0.0719999969005585
0.0320000015199184
0.10700000077486
0.129999995231628
0.0590000003576279
0.096000000834465
0.100000001490116
0.0560000017285347
0.0879999995231628
0.0719999969005585
0.0109999999403954
0.123999997973442
0.0320000015199184
0.0810000002384186
0.116999998688698
0.061999998986721
0.0890000015497208
0.0480000004172325
0.0359999984502792
0.0729999989271164
0.0430000014603138
0.0450000017881393
0.0759999975562096
0.0469999983906746
0.0649999976158142
0.135000005364418
0.0509999990463257
0.0810000002384186
0.0839999988675117
0.068000003695488
0.0390000008046627
0.0560000017285347
0.0750000029802322
0.0469999983906746
0.0570000000298023
0.0450000017881393
0.0399999991059303
0.0590000003576279
0.0379999987781048
0.0209999997168779
0.0500000007450581
0.0500000007450581
0.0419999994337559
0.0850000008940697
0.0230000000447035
0.0949999988079071
0.0529999993741512
0.0109999999403954
0.0979999974370003
0.0540000014007092
0.0299999993294477
0.0850000008940697
0.0399999991059303
0.0450000017881393
0.0670000016689301
0.0489999987185001
0.0439999997615814
0.063000001013279
0.0939999967813492
0.103000000119209
0.0520000010728836
0.0890000015497208
0.0450000017881393
0.0659999996423721
0.0430000014603138
0.0520000010728836
0.0719999969005585
0.140000000596046
0.063000001013279
0.104999996721745
0.114000000059605
0.0179999992251396
0.11599999666214
0.101999998092651
0.0480000004172325
0.0590000003576279
0.0740000009536743
0.0790000036358833
0.112999998033047
0.0740000009536743
0.0590000003576279
0.0450000017881393
0.0879999995231628
0.0570000000298023
0.0500000007450581
0.0560000017285347
0.0469999983906746
0.0199999995529652
0.115000002086163
0.0769999995827675
0.0390000008046627
0.0560000017285347
0.0219999998807907
0.104999996721745
0.0419999994337559
0.0149999996647239
0.0280000008642673
0.0509999990463257
0.0199999995529652
0.0810000002384186
0.0430000014603138
0.0509999990463257
0.0579999983310699
0.034000001847744
0.0869999974966049
0.109999999403954
0.0529999993741512
0.0750000029802322
0.0640000030398369
0.0920000001788139
0.0610000006854534
0.068000003695488
0.0570000000298023
0.0500000007450581
0.046000000089407
0.0989999994635582
0.0430000014603138
0.0500000007450581
0.0640000030398369
0.0410000011324883
0.0890000015497208
0.105999998748302
-0.025000000372529
0.0780000016093254
0.0469999983906746
0.104000002145767
0.0869999974966049
0.0529999993741512
0.0430000014603138
0.0280000008642673
0.0199999995529652
0.0469999983906746
0.0489999987185001
0.046000000089407
0.0750000029802322
0.0480000004172325
0.112000003457069
0.061999998986721
0.0450000017881393
0.0920000001788139
0.046000000089407
0.0729999989271164
0.0759999975562096
0.0780000016093254
0.0750000029802322
0.0590000003576279
0.017000000923872
0.0590000003576279
0.061999998986721
0.0489999987185001
0.0799999982118607
0.061999998986721
0.120999999344349
0.0839999988675117
0.0230000000447035
0.0810000002384186
0.0989999994635582
0.0879999995231628
0.0509999990463257
0.034000001847744
0.0649999976158142
-0.0020000000949949
0.0209999997168779
0.111000001430511
0.00999999977648258
0.0920000001788139
0.090999998152256
-0.00499999988824129
0.0359999984502792
0.0820000022649765
0.0700000002980232
0.0759999975562096
0.0579999983310699
0.068000003695488
0.0480000004172325
0.0450000017881393
0.0780000016093254
0.0979999974370003
0.0270000007003546
0.00800000037997961
0.0549999997019768
0.0670000016689301
0.0780000016093254
0.0890000015497208
0.0659999996423721
0.0769999995827675
0.0390000008046627
0.068000003695488
0.0759999975562096
0.0570000000298023
0.0560000017285347
0.0299999993294477
-0.0189999993890524
0.0860000029206276
0.0900000035762787
0.0379999987781048
0.0670000016689301
0.0759999975562096
0.0419999994337559
0.061999998986721
0.0329999998211861
-0.0149999996647239
0.0719999969005585
0.0740000009536743
0.0869999974966049
0.0370000004768372
0.0799999982118607
0.0700000002980232
0.00700000021606684
0.0469999983906746
0.0109999999403954
0.0820000022649765
0.0799999982118607
0.0489999987185001
0.165999993681908
0.0670000016689301
0.0820000022649765
0.0649999976158142
0.0520000010728836
0.0719999969005585
0.090999998152256
0.112999998033047
0.0549999997019768
0.0240000002086163
0.0320000015199184
0.0860000029206276
0.0560000017285347
0.138999998569489
0.0989999994635582
-0.00600000005215406
0.116999998688698
0.0599999986588955
0.0710000023245811
0.0370000004768372
0.0549999997019768
0.0949999988079071
0.0599999986588955
0.0750000029802322
0.0450000017881393
0.0370000004768372
0.0790000036358833
0.034000001847744
0.0829999968409538
0.0710000023245811
0.111000001430511
0.0750000029802322
0.0759999975562096
0.0710000023245811
0.0590000003576279
0.0820000022649765
0.0610000006854534
0.061999998986721
0.0570000000298023
0.068000003695488
0.0790000036358833
0.028999999165535
0.0230000000447035
0.0659999996423721
0.0710000023245811
0.0670000016689301
0.0270000007003546
0.0540000014007092
0.108999997377396
0.0359999984502792
0.0839999988675117
0.0790000036358833
0.0520000010728836
0.0209999997168779
-0.00100000004749745
0.0509999990463257
0.0920000001788139
0.0230000000447035
0.0670000016689301
0.0750000029802322
0.0149999996647239
0.0780000016093254
0.0640000030398369
0.090999998152256
0.0500000007450581
0.0320000015199184
0.0670000016689301
0.0579999983310699
-0.00300000002607703
0.0799999982118607
0.0280000008642673
0.0710000023245811
0.104999996721745
0.0240000002086163
0.0590000003576279
-0.00999999977648258
-0.0199999995529652
0.0560000017285347
0.0670000016689301
-0.0109999999403954
0.0700000002980232
0.017000000923872
0.090999998152256
0.0970000028610229
0.0480000004172325
0.0189999993890524
0.0829999968409538
0.0359999984502792
0.0199999995529652
0.0659999996423721
0.0549999997019768
0.101000003516674
0.0549999997019768
0.0450000017881393
0.122000001370907
0.0509999990463257
0.0829999968409538
0.0299999993294477
0.0480000004172325
0.0799999982118607
0.0199999995529652
0.0500000007450581
0.128000006079674
0.0640000030398369
0.10700000077486
0.0769999995827675
0.0930000022053719
0.0419999994337559
0.0540000014007092
0.0610000006854534
0.0710000023245811
0.0610000006854534
0.0810000002384186
0.068000003695488
0.0390000008046627
0.00499999988824129
0.046000000089407
0.0130000002682209
0.108999997377396
0.0329999998211861
0.0839999988675117
0.0379999987781048
0.0160000007599592
0.0780000016093254
0.0280000008642673
0.0320000015199184
0.0700000002980232
0.0670000016689301
0.0989999994635582
0.123999997973442
0.068000003695488
0.00600000005215406
0.0230000000447035
0.0879999995231628
0.0759999975562096
0.0780000016093254
0.0810000002384186
0.0759999975562096
0.0890000015497208
0.0949999988079071
0.0920000001788139
0.0280000008642673
0.0560000017285347
0.0610000006854534
0.0700000002980232
0.0810000002384186
0.0790000036358833
0.105999998748302
0.0700000002980232
0.025000000372529
0.0829999968409538
0.0540000014007092
0.0710000023245811
0.0710000023245811
0.0729999989271164
0.061999998986721
0.0719999969005585
0.0780000016093254
0.063000001013279
0.0829999968409538
0.144999995827675
0.0939999967813492
0.0230000000447035
0.143999993801117
0.0480000004172325
0.0799999982118607
0.120999999344349
0.0729999989271164
0.0579999983310699
0.0549999997019768
0.0469999983906746
0.0920000001788139
0.0689999982714653
0.017000000923872
0.0350000001490116
0.0509999990463257
0.0750000029802322
0.0890000015497208
0.0199999995529652
0.0450000017881393
0.0599999986588955
0.0659999996423721
0.0710000023245811
0.0509999990463257
0.0790000036358833
0.0410000011324883
-0.0130000002682209
0.028999999165535
0.0839999988675117
0.068000003695488
0.0439999997615814
0.0219999998807907
0.0529999993741512
0.0689999982714653
0.0610000006854534
0.0930000022053719
0.0529999993741512
0.0599999986588955
0.114000000059605
-0.00300000002607703
0.0370000004768372
0.104000002145767
0.0719999969005585
0.10700000077486
0.0810000002384186
0.0280000008642673
0.0700000002980232
0.0410000011324883
0.104999996721745
0.0640000030398369
0.0689999982714653
0.0839999988675117
0.0399999991059303
0.0280000008642673
0.0970000028610229
0.0469999983906746
0.0359999984502792
0.105999998748302
0.101999998092651
0.131999999284744
0.181999996304512
0.0729999989271164
0.0920000001788139
0.130999997258186
0.0309999994933605
0.0780000016093254
0.0590000003576279
0.0599999986588955
0.109999999403954
0.0149999996647239
0.025000000372529
0.0649999976158142
0.0989999994635582
0.0410000011324883
0.0839999988675117
0.0430000014603138
-0.0240000002086163
0.0379999987781048
0.0579999983310699
0.0350000001490116
0.0520000010728836
0.0890000015497208
0.0489999987185001
0.0450000017881393
0.063000001013279
0.0529999993741512
0.0299999993294477
0.0489999987185001
0.0750000029802322
0.0740000009536743
0.112000003457069
0.125
0.0719999969005585
0.00899999961256981
0.0719999969005585
0.109999999403954
0.0489999987185001
0.0900000035762787
0.0640000030398369
0.0839999988675117
0.0740000009536743
0.0359999984502792
0.104000002145767
0.0329999998211861
0.0469999983906746
0.133000001311302
0.0480000004172325
0.0769999995827675
0.017000000923872
0.0189999993890524
0.119000002741814
0.114000000059605
0.063000001013279
0.0529999993741512
0.0480000004172325
0.0240000002086163
0.108000002801418
0.0640000030398369
0.0850000008940697
0.10700000077486
0.0879999995231628
0.0469999983906746
0.0480000004172325
0.0439999997615814
0.0780000016093254
0.0350000001490116
0.0579999983310699
0.0659999996423721
0.0179999992251396
0.096000000834465
0.0750000029802322
0.10700000077486
0.0689999982714653
0.0810000002384186
0.0520000010728836
0.0700000002980232
0.063000001013279
0.0509999990463257
0.0549999997019768
0.0879999995231628
0.0930000022053719
0.0270000007003546
0.0489999987185001
0.0879999995231628
0.0379999987781048
0.0529999993741512
0.063000001013279
0.0649999976158142
0.105999998748302
0.0759999975562096
0.0230000000447035
0.0659999996423721
0.0399999991059303
0.0439999997615814
0.0520000010728836
0.00800000037997961
0.0590000003576279
0.0399999991059303
0.0719999969005585
0.105999998748302
0.0189999993890524
0.0710000023245811
0.0439999997615814
0.0120000001043081
0.125
0.0509999990463257
0.0810000002384186
0.119000002741814
0.0130000002682209
0.0549999997019768
0.0850000008940697
0.0359999984502792
0.0970000028610229
0.0750000029802322
0.0540000014007092
0.0820000022649765
0.0659999996423721
0.0540000014007092
0.061999998986721
0.0260000005364418
0.0820000022649765
0.0390000008046627
0.0780000016093254
0.145999997854233
0.0829999968409538
0.0799999982118607
0.0659999996423721
0.034000001847744
0.090999998152256
0.101999998092651
0.0379999987781048
0.0509999990463257
0.0410000011324883
0.0520000010728836
0.0439999997615814
0.063000001013279
0.0399999991059303
0.0939999967813492
0.0780000016093254
0.119000002741814
0.068000003695488
0.0710000023245811
0.0529999993741512
0.0399999991059303
0.0689999982714653
0.0590000003576279
0.0670000016689301
0.114000000059605
0.0729999989271164
0.068000003695488
0.133000001311302
0.0590000003576279
0.090999998152256
0.0790000036358833
0.00400000018998981
0.0549999997019768
0.0570000000298023
0.068000003695488
0.103000000119209
0.0480000004172325
0.0729999989271164
0.0769999995827675
0.0570000000298023
0.133000001311302
0.0820000022649765
0.0419999994337559
0.0329999998211861
0.0590000003576279
0.0869999974966049
0.0799999982118607
0.034000001847744
0.063000001013279
0.0719999969005585
0.096000000834465
0.119999997317791
0.0860000029206276
0.0299999993294477
0.0729999989271164
0.0430000014603138
0.0769999995827675
0.0890000015497208
0.0829999968409538
0.0469999983906746
0.0729999989271164
0.0640000030398369
0.0270000007003546
0.0270000007003546
0.0829999968409538
0.0780000016093254
0.0850000008940697
0.0750000029802322
0.0570000000298023
0.0790000036358833
0.090999998152256
0.0509999990463257
0.0240000002086163
0.0320000015199184
0.046000000089407
0.0900000035762787
0.0670000016689301
0.0359999984502792
0.119999997317791
0.0500000007450581
0.101000003516674
0.108999997377396
0.0590000003576279
0.0379999987781048
0.0839999988675117
0.0860000029206276
0.0419999994337559
-0.0120000001043081
-0.0020000000949949
0.0509999990463257
0.104000002145767
0.0920000001788139
0.0570000000298023
0.0590000003576279
0.0659999996423721
0.0810000002384186
0.0520000010728836
0.0900000035762787
0.0769999995827675
0.0500000007450581
0.0769999995827675
0.0590000003576279
0.0439999997615814
0.0260000005364418
0.046000000089407
0.0439999997615814
0.0179999992251396
0.0860000029206276
0.0790000036358833
0.0240000002086163
0.0370000004768372
0.0700000002980232
0.0529999993741512
0.0689999982714653
0.101999998092651
0.0799999982118607
0.0469999983906746
0.061999998986721
0.111000001430511
0.0489999987185001
0.0640000030398369
0.0549999997019768
0.109999999403954
0.0640000030398369
0.0599999986588955
0.063000001013279
0.0640000030398369
0.0810000002384186
0.0700000002980232
0.090999998152256
0.0430000014603138
0.0769999995827675
0.0689999982714653
0.00600000005215406
0.0610000006854534
0.0390000008046627
0.061999998986721
0.142000004649162
0.0879999995231628
0.0869999974966049
0.0839999988675117
0.0729999989271164
0.0839999988675117
0.0419999994337559
0.0529999993741512
0.0810000002384186
0.0820000022649765
0.0410000011324883
0.114000000059605
0.017000000923872
0.0410000011324883
0.096000000834465
0.0199999995529652
0.00999999977648258
0.0890000015497208
0.025000000372529
0.10700000077486
0.063000001013279
0.0710000023245811
0.0829999968409538
0.0659999996423721
0.063000001013279
0.0390000008046627
0.028999999165535
0.0529999993741512
0.0700000002980232
0.063000001013279
0.00800000037997961
0.0540000014007092
0.0529999993741512
0.0640000030398369
0.0489999987185001
0.0949999988079071
0.0970000028610229
0.133000001311302
0.13400000333786
0.101999998092651
0.0799999982118607
0.137999996542931
0.0920000001788139
0.0599999986588955
0.0850000008940697
0.0740000009536743
0.0780000016093254
0.0900000035762787
0.0769999995827675
0.0689999982714653
0.0700000002980232
0.0729999989271164
0.0879999995231628
0.0520000010728836
0.0719999969005585
0.0370000004768372
0.0500000007450581
0.068000003695488
0.0670000016689301
0.0579999983310699
0.0719999969005585
0.0140000004321337
0.0659999996423721
0.0280000008642673
0.0839999988675117
0.0759999975562096
0.0769999995827675
0.0659999996423721
0.0750000029802322
0.0240000002086163
0.0379999987781048
0.0439999997615814
0.0500000007450581
0.0540000014007092
0.00800000037997961
0.0729999989271164
0.119000002741814
0.0390000008046627
0.0689999982714653
0.141000002622604
0.0850000008940697
0.0439999997615814
0.0329999998211861
0.0920000001788139
0.105999998748302
0.0280000008642673
0.108000002801418
0.0320000015199184
0.0640000030398369
0.105999998748302
0.0500000007450581
0.046000000089407
0.0949999988079071
0.0320000015199184
0.0799999982118607
0.0410000011324883
0.0260000005364418
0.11599999666214
0.0979999974370003
0.108999997377396
0.0509999990463257
0.0450000017881393
0.0900000035762787
0.100000001490116
0.0710000023245811
0.0270000007003546
0.0390000008046627
0.0590000003576279
0.0489999987185001
0.0649999976158142
0.096000000834465
0.0599999986588955
0.0949999988079071
0.0820000022649765
0.0689999982714653
0.063000001013279
0.0270000007003546
0.063000001013279
0.0710000023245811
0.0599999986588955
0.0209999997168779
0.10700000077486
0.0719999969005585
0.00400000018998981
0.0359999984502792
0.0419999994337559
0.0480000004172325
0.00899999961256981
0.0500000007450581
0.0520000010728836
0.0860000029206276
0.0769999995827675
0.0949999988079071
0.0549999997019768
0.0320000015199184
0.149000003933907
0.025000000372529
0.0500000007450581
0.0719999969005585
0.0500000007450581
0.028999999165535
0.0879999995231628
0.0529999993741512
0.0799999982118607
0.108999997377396
0.0670000016689301
0.135000005364418
0.0670000016689301
0.0740000009536743
0.122000001370907
0.0810000002384186
0.0700000002980232
0.0149999996647239
0.114000000059605
0.0659999996423721
0.0309999994933605
0.0529999993741512
0.00499999988824129
0.0509999990463257
0.160999998450279
0.0399999991059303
0.0430000014603138
0.0590000003576279
0.0549999997019768
0.111000001430511
0.116999998688698
0.0719999969005585
0.138999998569489
0.0579999983310699
0.0659999996423721
0.0879999995231628
0.0590000003576279
0.151999995112419
0.0670000016689301
0.0560000017285347
0.126000002026558
0.115000002086163
0.0390000008046627
0.0529999993741512
0.0670000016689301
0.0710000023245811
0.0419999994337559
0.0480000004172325
0.0469999983906746
0.0350000001490116
0.0350000001490116
0.0900000035762787
0.0649999976158142
0.0949999988079071
0.115000002086163
0.0640000030398369
0.111000001430511
0.0540000014007092
0.0549999997019768
0.0689999982714653
0.0869999974966049
0.096000000834465
0.0920000001788139
0.0780000016093254
0.0199999995529652
0.0160000007599592
0.0410000011324883
0.100000001490116
0.0549999997019768
-0.00100000004749745
0.0949999988079071
0.0350000001490116
0.0529999993741512
0.104000002145767
0.0759999975562096
0.0750000029802322
0.063000001013279
0.0740000009536743
0.0869999974966049
0.0280000008642673
0.0219999998807907
0.034000001847744
0.061999998986721
0.0599999986588955
0.063000001013279
0.034000001847744
0.105999998748302
0.0240000002086163
0.0549999997019768
0.0209999997168779
0.0540000014007092
0.0820000022649765
0.0659999996423721
0.0780000016093254
0.0329999998211861
0.0500000007450581
0.103000000119209
0.0970000028610229
0.0670000016689301
0.0930000022053719
0.0689999982714653
0.0350000001490116
0.0149999996647239
0.0260000005364418
-0.00300000002607703
0.0509999990463257
0.0419999994337559
0.11599999666214
0.0769999995827675
0.0399999991059303
0.0130000002682209
0.0480000004172325
0.0599999986588955
0.0450000017881393
0.0649999976158142
0.0979999974370003
0.104999996721745
0.0610000006854534
0.133000001311302
0.0649999976158142
0.0860000029206276
0.101999998092651
0.0379999987781048
0.112999998033047
0.0640000030398369
0.0560000017285347
0.104000002145767
0.0570000000298023
0.0509999990463257
0.0640000030398369
0.0370000004768372
0.0399999991059303
0.0759999975562096
0.0790000036358833
0.0649999976158142
0.109999999403954
0.0160000007599592
0.0729999989271164
0.0659999996423721
0.0480000004172325
0.120999999344349
-0.00700000021606684
0.0520000010728836
0.0270000007003546
0.0350000001490116
0.0879999995231628
0.0780000016093254
0.0729999989271164
0.0640000030398369
0.0439999997615814
0.0649999976158142
0.0320000015199184
0.0469999983906746
0.0579999983310699
0.0979999974370003
0.0410000011324883
0.0540000014007092
0.0850000008940697
0.0329999998211861
0.111000001430511
0.028999999165535
0.090999998152256
0.0989999994635582
0.0509999990463257
0.118000000715256
0.0230000000447035
0.068000003695488
0.0839999988675117
0.0270000007003546
0.0370000004768372
0.0430000014603138
0.0329999998211861
0.0780000016093254
0.0469999983906746
0.0469999983906746
0.119000002741814
0.116999998688698
0.0659999996423721
0.0970000028610229
0.0689999982714653
0.0689999982714653
0.0890000015497208
0.0769999995827675
0.101000003516674
0.017000000923872
0.0390000008046627
0.0520000010728836
0.0410000011324883
0.0509999990463257
0.0579999983310699
0.0810000002384186
0.0989999994635582
0.017000000923872
0.063000001013279
0.0649999976158142
0.046000000089407
0.0439999997615814
0.0299999993294477
0.0799999982118607
0.0590000003576279
0.0829999968409538
0.0370000004768372
0.0520000010728836
0.0790000036358833
0.0579999983310699
0.0729999989271164
0.0280000008642673
0.0560000017285347
0.0710000023245811
0.0549999997019768
0.063000001013279
0.0719999969005585
0.0649999976158142
0.0590000003576279
0.104000002145767
0.14300000667572
0.101999998092651
0.0209999997168779
0.0740000009536743
0.0689999982714653
0.0869999974966049
0.0879999995231628
0.028999999165535
0.0719999969005585
0.0890000015497208
0.0500000007450581
0.101999998092651
0.0560000017285347
0.090999998152256
0.0979999974370003
0.028999999165535
0.0140000004321337
0.100000001490116
0.0839999988675117
0.103000000119209
0.0649999976158142
0.0309999994933605
0.0719999969005585
0.0670000016689301
0.0759999975562096
0.0280000008642673
0.0469999983906746
0.122000001370907
0.0860000029206276
0.0599999986588955
0.068000003695488
0.100000001490116
0.0920000001788139
0.101999998092651
0.068000003695488
0.0560000017285347
0.0480000004172325
0.0949999988079071
0.028999999165535
0.0839999988675117
0.0799999982118607
0.0590000003576279
0.0450000017881393
0.0509999990463257
0.115000002086163
0.0729999989271164
0.0379999987781048
0.0610000006854534
0.0359999984502792
0.0469999983906746
0.0599999986588955
0.017000000923872
0.090999998152256
0.0820000022649765
0.068000003695488
0.0149999996647239
0.0439999997615814
0.0599999986588955
0.068000003695488
0.0509999990463257
0.0869999974966049
0.0850000008940697
0.0759999975562096
0.114000000059605
0.0939999967813492
0.0920000001788139
0.0970000028610229
0.0399999991059303
0.0670000016689301
0.0820000022649765
0.061999998986721
0.0769999995827675
0.0489999987185001
0.0759999975562096
0.122000001370907
0.0120000001043081
0.0469999983906746
0.0579999983310699
0.0590000003576279
0.131999999284744
0.0480000004172325
0.0780000016093254
0.0199999995529652
0.0419999994337559
0.0780000016093254
0.0540000014007092
0.0989999994635582
0.0430000014603138
0.0450000017881393
0.0390000008046627
0.0579999983310699
0.0439999997615814
0.0520000010728836
0.0610000006854534
0.0020000000949949
0.130999997258186
0.0469999983906746
0.0599999986588955
0.0570000000298023
0.0780000016093254
0.0450000017881393
0.046000000089407
0.0529999993741512
0.0939999967813492
0.0390000008046627
0.0860000029206276
0.0879999995231628
0.0610000006854534
0.0560000017285347
0.0570000000298023
0.0710000023245811
0.0430000014603138
0.0529999993741512
0.0469999983906746
0.0260000005364418
0.115000002086163
0.0579999983310699
0.101999998092651
0.0109999999403954
0.0869999974966049
0.111000001430511
0.0710000023245811
0.101000003516674
0.0879999995231628
0.096000000834465
0.0930000022053719
0.00800000037997961
0.0700000002980232
0.0540000014007092
0.0829999968409538
0.115000002086163
0.125
0.0410000011324883
0.0509999990463257
0.0529999993741512
0.0900000035762787
0.0799999982118607
0.034000001847744
0.0930000022053719
0.0480000004172325
0.0579999983310699
0.0750000029802322
0.0670000016689301
0.028999999165535
0.0970000028610229
0.0740000009536743
0.0719999969005585
0.0599999986588955
0.0740000009536743
0.0839999988675117
0.118000000715256
0.118000000715256
0.0890000015497208
0.0370000004768372
0.0839999988675117
0.0529999993741512
0.0480000004172325
0.0240000002086163
0.0579999983310699
0.0790000036358833
0.0989999994635582
0.0769999995827675
0.0179999992251396
0.104999996721745
0.0260000005364418
0.0989999994635582
0.0529999993741512
0.0520000010728836
0.11599999666214
0.0599999986588955
0.0579999983310699
0.108999997377396
0.0430000014603138
0.0529999993741512
0.0570000000298023
0.0240000002086163
0.0759999975562096
0.0469999983906746
0.0480000004172325
0.0280000008642673
0.0560000017285347
0.0920000001788139
0.061999998986721
0.0579999983310699
0.0930000022053719
0.0989999994635582
0.0869999974966049
0.104999996721745
0.0769999995827675
0.0399999991059303
0.0759999975562096
0.0780000016093254
0.0939999967813492
0.068000003695488
0.0230000000447035
0.0670000016689301
0.0670000016689301
0.0599999986588955
0.0689999982714653
0.0710000023245811
0.0509999990463257
0.0439999997615814
0.0920000001788139
0.0850000008940697
0.0829999968409538
0.0189999993890524
0.0430000014603138
0.10700000077486
0.068000003695488
0.034000001847744
0.096000000834465
0.104999996721745
0.0740000009536743
0.0520000010728836
0.096000000834465
0.068000003695488
0.0309999994933605
0.0270000007003546
0.0450000017881393
0.0780000016093254
0.0750000029802322
0.0839999988675117
0.0850000008940697
0.104000002145767
0.0769999995827675
0.063000001013279
0.0120000001043081
0.0509999990463257
0.0920000001788139
0.0740000009536743
0.0659999996423721
0.0599999986588955
0.0659999996423721
0.0320000015199184
0.0419999994337559
0.0810000002384186
0.144999995827675
0.096000000834465
0.0900000035762787
0.0920000001788139
0.0710000023245811
0.0820000022649765
0.0930000022053719
0.068000003695488
0.061999998986721
0.063000001013279
0.0729999989271164
0.0549999997019768
0.0120000001043081
0.0320000015199184
0.0219999998807907
-0.0179999992251396
0.0560000017285347
0.0489999987185001
0.108000002801418
0.0860000029206276
0.0549999997019768
0.0729999989271164
0.0820000022649765
0.0280000008642673
0.11599999666214
0.0610000006854534
0.0599999986588955
0.0659999996423721
0.0839999988675117
0.136000007390976
0.0700000002980232
0.0419999994337559
0.0570000000298023
0.0670000016689301
0.0560000017285347
0.114000000059605
0.118000000715256
0.105999998748302
0.138999998569489
0.0610000006854534
0.0579999983310699
0.0439999997615814
0.0820000022649765
0.0659999996423721
0.0769999995827675
0.0599999986588955
0.11599999666214
0.0759999975562096
0.0869999974966049
0.0799999982118607
0.0579999983310699
0.114000000059605
0.0659999996423721
0.0529999993741512
0.0500000007450581
-0.00300000002607703
0.0410000011324883
0.0759999975562096
0.0829999968409538
0.101000003516674
0.0370000004768372
0.0379999987781048
0.0799999982118607
0.046000000089407
0.0719999969005585
0.068000003695488
0.103000000119209
0.108000002801418
0.0829999968409538
0.0820000022649765
0.101999998092651
0.028999999165535
0.0219999998807907
0.0610000006854534
-0.0160000007599592
0.0610000006854534
0.0610000006854534
0.0450000017881393
0.0419999994337559
0.068000003695488
0.0700000002980232
0.0260000005364418
0.0540000014007092
0.0820000022649765
0.0560000017285347
0.0309999994933605
0.0540000014007092
0.0850000008940697
0.109999999403954
0.0920000001788139
0.0769999995827675
0.0570000000298023
0.0430000014603138
0.0799999982118607
0.0299999993294477
0.0549999997019768
0.109999999403954
0.0790000036358833
0.0900000035762787
0.0780000016093254
0.0810000002384186
0.0560000017285347
0.146999999880791
0.0860000029206276
0.0930000022053719
0.0920000001788139
0.0839999988675117
0.0430000014603138
0.0829999968409538
0.0480000004172325
0.028999999165535
0.0520000010728836
0.00999999977648258
0.0920000001788139
0.0390000008046627
0.0740000009536743
0.0480000004172325
0.0949999988079071
0.0659999996423721
0.0799999982118607
0.0299999993294477
0.0410000011324883
0.0710000023245811
-0.00700000021606684
0.0370000004768372
0.0469999983906746
0.0900000035762787
0.0930000022053719
0.0529999993741512
0.104999996721745
0.0890000015497208
0.0719999969005585
0.0860000029206276
0.090999998152256
0.0329999998211861
0.0930000022053719
0.0520000010728836
0.0240000002086163
0.0149999996647239
0.0590000003576279
0.0599999986588955
0.108999997377396
0.11599999666214
0.0930000022053719
0.0489999987185001
0.0860000029206276
0.0740000009536743
0.0370000004768372
0.0769999995827675
0.0790000036358833
0.0780000016093254
0.0549999997019768
0.0189999993890524
0.0850000008940697
0.0549999997019768
0.0540000014007092
0.0759999975562096
0.063000001013279
0.118000000715256
0.0970000028610229
0.0879999995231628
0.0509999990463257
0.0659999996423721
0.0820000022649765
0.0719999969005585
0.0769999995827675
0.0949999988079071
0.0710000023245811
0.101999998092651
0.0309999994933605
0.126000002026558
0.0529999993741512
0.0560000017285347
0.0370000004768372
0.00600000005215406
0.0799999982118607
0.0560000017285347
0.068000003695488
0.0790000036358833
0.0740000009536743
0.0540000014007092
0.0829999968409538
0.0560000017285347
0.0500000007450581
0.063000001013279
0.0810000002384186
0.108999997377396
0.0379999987781048
0.0930000022053719
0.046000000089407
0.0160000007599592
0.0450000017881393
0.0869999974966049
0.0780000016093254
0.0509999990463257
0.0570000000298023
0.0710000023245811
0.0579999983310699
0.096000000834465
0.0879999995231628
0.0659999996423721
0.0590000003576279
0.096000000834465
0.10700000077486
0.017000000923872
0.0509999990463257
0.0399999991059303
0.0750000029802322
0.0590000003576279
0.109999999403954
0.0659999996423721
0.0810000002384186
0.0689999982714653
0.105999998748302
0.135000005364418
0.0379999987781048
0.112000003457069
0.0810000002384186
0.0399999991059303
0.108999997377396
0.0430000014603138
0.0410000011324883
0.0280000008642673
0.0560000017285347
0.0520000010728836
0.0329999998211861
-0.00100000004749745
0.061999998986721
0.0430000014603138
0.0410000011324883
0.0590000003576279
0.108000002801418
0.0719999969005585
0.0820000022649765
0.0719999969005585
0.068000003695488
0.0860000029206276
0.0430000014603138
0.0810000002384186
0.0850000008940697
0.0719999969005585
0.0689999982714653
0.0439999997615814
0.0579999983310699
0.0750000029802322
0.0520000010728836
0.0839999988675117
0.090999998152256
0.0900000035762787
0.090999998152256
0.0829999968409538
0.0829999968409538
0.0729999989271164
0.0820000022649765
0.108000002801418
0.0570000000298023
0.0140000004321337
0.0829999968409538
0.0759999975562096
0.105999998748302
0.118000000715256
0.0299999993294477
0.133000001311302
0.0780000016093254
0.0689999982714653
0.13400000333786
0.0759999975562096
0.0570000000298023
0.0900000035762787
0.0489999987185001
0.114000000059605
0.0240000002086163
0.0299999993294477
0.120999999344349
0.034000001847744
0.119999997317791
0.025000000372529
0.0469999983906746
0.0949999988079071
0.0799999982118607
0.0570000000298023
0.0700000002980232
0.0489999987185001
0.0649999976158142
0.0590000003576279
0.0469999983906746
0.00800000037997961
0.0610000006854534
0.122000001370907
0.115000002086163
0.0439999997615814
0.034000001847744
0.0949999988079071
0.0719999969005585
0.112999998033047
0.0869999974966049
0.046000000089407
0.0520000010728836
0.0549999997019768
0.0529999993741512
0.046000000089407
0.068000003695488
0.0439999997615814
0.0540000014007092
0.0540000014007092
0.0280000008642673
0.0439999997615814
0.0839999988675117
0.0399999991059303
0.0489999987185001
0.0920000001788139
0.101999998092651
0.0350000001490116
0.046000000089407
0.0430000014603138
0.0879999995231628
0.0410000011324883
0.104999996721745
0.0299999993294477
0.046000000089407
0.0670000016689301
0.0450000017881393
0.0640000030398369
0.0529999993741512
0.0430000014603138
0.0979999974370003
0.0450000017881393
0.0540000014007092
0.0939999967813492
0.0439999997615814
0.0590000003576279
0.0640000030398369
0.096000000834465
0.104000002145767
0.0610000006854534
0.0489999987185001
0.0920000001788139
0.0489999987185001
0.0939999967813492
0.0149999996647239
0.0729999989271164
0.0379999987781048
0.0659999996423721
0.068000003695488
0.00800000037997961
0.0670000016689301
0.0799999982118607
0.0590000003576279
0.0480000004172325
0.112999998033047
0.0900000035762787
0.0750000029802322
0.0520000010728836
0.0500000007450581
0.0659999996423721
0.0799999982118607
0.0540000014007092
0.028999999165535
0.0299999993294477
0.0410000011324883
0.0710000023245811
0.13400000333786
0.131999999284744
0.0350000001490116
0.0450000017881393
0.0500000007450581
0.0410000011324883
0.0920000001788139
0.122000001370907
0.104999996721745
0.101999998092651
0.0719999969005585
0.061999998986721
0.090999998152256
0.0890000015497208
0.0410000011324883
0.0020000000949949
0.0189999993890524
-0.0120000001043081
0.0489999987185001
0.0549999997019768
0.0560000017285347
0.0659999996423721
0.0850000008940697
0.0579999983310699
0.0769999995827675
0.0750000029802322
0.0780000016093254
0.116999998688698
0.0900000035762787
0.0780000016093254
0.0780000016093254
0.0640000030398369
0.0659999996423721
0.0379999987781048
0.0879999995231628
0.0729999989271164
0.063000001013279
0.0869999974966049
0.0579999983310699
0.100000001490116
0.0240000002086163
0.0560000017285347
0.0500000007450581
0.061999998986721
0.0869999974966049
0.0689999982714653
0.10700000077486
0.0930000022053719
0.101999998092651
0.0149999996647239
0.0359999984502792
0.0769999995827675
0.0149999996647239
0.0659999996423721
0.0329999998211861
0.0790000036358833
0.0299999993294477
0.0829999968409538
0.0790000036358833
0.0560000017285347
0.0329999998211861
0.0109999999403954
0.0640000030398369
0.114000000059605
0.0399999991059303
0.0520000010728836
0.0850000008940697
0.0670000016689301
0.0179999992251396
0.0560000017285347
0.103000000119209
0.0509999990463257
0.0939999967813492
0.123999997973442
0.0689999982714653
0.0970000028610229
0.0590000003576279
0.0900000035762787
0.144999995827675
0.0520000010728836
0.090999998152256
0.0879999995231628
-0.00499999988824129
0.0590000003576279
0.0810000002384186
0.100000001490116
0.150000005960464
0.0439999997615814
0.063000001013279
0.120999999344349
0.0640000030398369
0.0430000014603138
0.034000001847744
0.0930000022053719
0.0359999984502792
0.0520000010728836
0.0120000001043081
0.0790000036358833
0.0610000006854534
0.0689999982714653
0.0900000035762787
0.0509999990463257
0.0729999989271164
0.0659999996423721
0.0610000006854534
0.0780000016093254
0.0659999996423721
0.0309999994933605
0.0599999986588955
0.0890000015497208
0.136999994516373
0.0540000014007092
0.0649999976158142
0.0750000029802322
0.0599999986588955
0.0529999993741512
0.0719999969005585
0.0599999986588955
0.0799999982118607
0.0820000022649765
0.0759999975562096
0.0540000014007092
0.025000000372529
0.0299999993294477
0.0480000004172325
0.090999998152256
0.0309999994933605
0.0850000008940697
0.0579999983310699
0.0590000003576279
0.0949999988079071
0.0439999997615814
0.0540000014007092
0.0820000022649765
0.061999998986721
0.0829999968409538
0.130999997258186
0.0610000006854534
0.0329999998211861
0.0149999996647239
0.0610000006854534
0.0489999987185001
0.0520000010728836
0.0410000011324883
0.103000000119209
0.0549999997019768
0.0979999974370003
0.0320000015199184
0.103000000119209
0.0839999988675117
0.0450000017881393
0.0890000015497208
0.0489999987185001
0.0790000036358833
0.068000003695488
0.0769999995827675
0.0610000006854534
0.0810000002384186
0.0799999982118607
0.104999996721745
0.0649999976158142
0.0020000000949949
0.0560000017285347
0.068000003695488
0.0860000029206276
0.100000001490116
0.0879999995231628
0.0410000011324883
0.122000001370907
0.0829999968409538
0.0989999994635582
0.101999998092651
0.0120000001043081
0.0590000003576279
0.0520000010728836
0.0689999982714653
0.096000000834465
0.0869999974966049
0.0469999983906746
0.0280000008642673
0.068000003695488
0.061999998986721
0.0659999996423721
0.0729999989271164
0.0219999998807907
0.0209999997168779
0.0379999987781048
0.0850000008940697
0.10700000077486
0.0549999997019768
0.0309999994933605
0.0769999995827675
0.0930000022053719
0.0509999990463257
0.090999998152256
0.046000000089407
0.0320000015199184
0.0419999994337559
0.0520000010728836
0.0480000004172325
0.0590000003576279
0.028999999165535
0.0160000007599592
0.0529999993741512
0.0860000029206276
0.0240000002086163
0.0790000036358833
0.0160000007599592
0.00899999961256981
0.0640000030398369
0.130999997258186
-0.0109999999403954
0.105999998748302
0.0729999989271164
0.0729999989271164
0.0390000008046627
0.0750000029802322
0.0350000001490116
0.046000000089407
0.0570000000298023
0.0649999976158142
0.114000000059605
0.0189999993890524
0.0529999993741512
0.0759999975562096
0.0540000014007092
0.0850000008940697
0.0740000009536743
0.0410000011324883
0.0540000014007092
0.101999998092651
0.0189999993890524
0.0759999975562096
0.0860000029206276
0.0370000004768372
0.0700000002980232
0.0759999975562096
0.0979999974370003
0.0750000029802322
0.0759999975562096
0.0350000001490116
0.0430000014603138
0.0509999990463257
0.0839999988675117
0.0280000008642673
0.034000001847744
0.0750000029802322
0.0689999982714653
0.0419999994337559
0.0780000016093254
0.0480000004172325
0.0640000030398369
0.0769999995827675
0.0130000002682209
0.0839999988675117
0.0560000017285347
0.0469999983906746
0.104999996721745
0.0850000008940697
0.0659999996423721
0.0750000029802322
0.0599999986588955
0.0900000035762787
0.0820000022649765
0.0199999995529652
0.0439999997615814
0.0850000008940697
0.034000001847744
0.0759999975562096
0.0790000036358833
0.0640000030398369
0.0740000009536743
0.0759999975562096
0.0520000010728836
0.00300000002607703
0.0410000011324883
0.0839999988675117
0.00499999988824129
0.0810000002384186
0.100000001490116
0.112000003457069
0.0509999990463257
0.0780000016093254
0.0570000000298023
0.0659999996423721
0.0759999975562096
0.0240000002086163
0.046000000089407
0.0130000002682209
0.0419999994337559
0.0750000029802322
0.0410000011324883
0.0179999992251396
0.0610000006854534
0.0540000014007092
0.0850000008940697
0.101999998092651
0.0780000016093254
0.104000002145767
0.017000000923872
0.0780000016093254
0.10700000077486
0.0719999969005585
0.0979999974370003
0.0419999994337559
0.0780000016093254
0.00700000021606684
0.0719999969005585
0.0729999989271164
0.104000002145767
0.0810000002384186
0.0839999988675117
0.0320000015199184
0.0729999989271164
0.0989999994635582
0.0410000011324883
0.0439999997615814
0.0469999983906746
0.0570000000298023
0.0740000009536743
0.0309999994933605
0.0509999990463257
0.0810000002384186
0.0540000014007092
0.0610000006854534
0.114000000059605
0.118000000715256
0.0610000006854534
0.0740000009536743
0.0649999976158142
0.0649999976158142
0.112000003457069
0.0710000023245811
0.0710000023245811
0.0890000015497208
0.0109999999403954
0.0509999990463257
0.0320000015199184
0.00899999961256981
0.0659999996423721
0.0399999991059303
0.0570000000298023
0.0610000006854534
0.0520000010728836
0.141000002622604
0.061999998986721
0.046000000089407
0.061999998986721
0.028999999165535
0.0670000016689301
0.0500000007450581
0.0649999976158142
0.0829999968409538
0.0549999997019768
0.0320000015199184
0.0920000001788139
0.00700000021606684
0.0509999990463257
0.034000001847744
0.0120000001043081
0.0590000003576279
0.0590000003576279
0.0469999983906746
0.0500000007450581
0.0570000000298023
0.0270000007003546
0.101000003516674
0.0939999967813492
0.0810000002384186
0.0820000022649765
0.0570000000298023
0.0810000002384186
0.112999998033047
0.0729999989271164
0.0769999995827675
0.0149999996647239
0.0719999969005585
0.0270000007003546
0.068000003695488
0.100000001490116
0.0450000017881393
0.0500000007450581
0.0900000035762787
0.028999999165535
0.0350000001490116
0.0839999988675117
0.135000005364418
0.0879999995231628
0.0890000015497208
0.0590000003576279
0.0500000007450581
0.0839999988675117
0.0439999997615814
0.0659999996423721
0.061999998986721
0.061999998986721
0.0860000029206276
0.0579999983310699
0.0610000006854534
0.028999999165535
0.0260000005364418
0.140000000596046
0.118000000715256
0.0860000029206276
0.112000003457069
0.0590000003576279
0.0939999967813492
0.0649999976158142
0.0329999998211861
0.0930000022053719
0.0529999993741512
0.0659999996423721
0.0320000015199184
0.0370000004768372
0.0419999994337559
0.150999993085861
0.0469999983906746
0.0750000029802322
0.063000001013279
0.0719999969005585
0.0820000022649765
0.068000003695488
0.0419999994337559
0.0970000028610229
0.0649999976158142
0.0590000003576279
0.061999998986721
0.0970000028610229
0.0930000022053719
0.0379999987781048
0.0350000001490116
0.101000003516674
0.0299999993294477
0.0359999984502792
0.0689999982714653
0.0970000028610229
0.0529999993741512
0.0189999993890524
0.0579999983310699
0.122000001370907
0.0480000004172325
0.0570000000298023
0.0659999996423721
0.0670000016689301
0.100000001490116
0.0700000002980232
0.046000000089407
0.0979999974370003
0.105999998748302
0.0529999993741512
0.0670000016689301
0.0799999982118607
0.046000000089407
0.0719999969005585
0.0399999991059303
0.0640000030398369
0.0399999991059303
-0.0189999993890524
0.0780000016093254
0.0309999994933605
0.0549999997019768
0.108999997377396
0.0810000002384186
0.0560000017285347
0.10700000077486
0.063000001013279
0.0610000006854534
0.0790000036358833
0.068000003695488
0.0759999975562096
0.0649999976158142
0.0450000017881393
0.0670000016689301
0.116999998688698
0.103000000119209
0.0230000000447035
0.122000001370907
0.0759999975562096
0.108999997377396
0.061999998986721
0.0939999967813492
0.133000001311302
0.119999997317791
0.096000000834465
0.0879999995231628
0.0469999983906746
0.0729999989271164
0.0700000002980232
0.0890000015497208
0.104000002145767
0.0740000009536743
0.0719999969005585
-0.00600000005215406
0.00999999977648258
0.0820000022649765
0.063000001013279
0.0570000000298023
0.0869999974966049
0.068000003695488
0.101999998092651
0.141000002622604
0.150999993085861
0.0640000030398369
0.0240000002086163
0.0810000002384186
0.0640000030398369
0.0480000004172325
0.0729999989271164
0.0199999995529652
0.028999999165535
0.0860000029206276
0.0140000004321337
0.0560000017285347
0.0280000008642673
0.0280000008642673
0.0689999982714653
0.063000001013279
0.0309999994933605
0.00300000002607703
0.0860000029206276
0.0399999991059303
0.0640000030398369
0.13400000333786
0.0860000029206276
0.104999996721745
0.0719999969005585
0.0529999993741512
0.0430000014603138
0.0729999989271164
0.0309999994933605
0.0649999976158142
0.0199999995529652
0.101999998092651
0.0390000008046627
0.0280000008642673
0.0740000009536743
0.0649999976158142
0.0560000017285347
0.0949999988079071
0.0469999983906746
0.0480000004172325
0.063000001013279
0.0390000008046627
0.112999998033047
0.0590000003576279
0.0860000029206276
0.0399999991059303
0.0689999982714653
0.0979999974370003
0.090999998152256
0.10700000077486
0.0719999969005585
0.0700000002980232
0.0890000015497208
0.0930000022053719
0.0399999991059303
0.0890000015497208
0.0399999991059303
0.0280000008642673
0.0839999988675117
0.0529999993741512
0.00400000018998981
0.0410000011324883
0.0649999976158142
0.0399999991059303
0.0390000008046627
0.0329999998211861
0.0610000006854534
0.0329999998211861
0.0529999993741512
0.0939999967813492
0.0649999976158142
0.0799999982118607
0.090999998152256
0.0350000001490116
0.0900000035762787
0.0590000003576279
0.0439999997615814
0.0309999994933605
0.0610000006854534
0.0260000005364418
0.0570000000298023
0.0379999987781048
0.0500000007450581
0.0700000002980232
0.063000001013279
-0.00600000005215406
0.0520000010728836
0.0599999986588955
0.104999996721745
0.108999997377396
0.0469999983906746
0.0710000023245811
0.0469999983906746
0.0939999967813492
0.0489999987185001
0.0540000014007092
0.0799999982118607
0.0430000014603138
0.0850000008940697
0.0729999989271164
0.0439999997615814
0.034000001847744
0.0599999986588955
-0.017000000923872
0.0610000006854534
0.10700000077486
0.0309999994933605
0.0540000014007092
0.017000000923872
0.0869999974966049
0.0410000011324883
0.0469999983906746
0.0759999975562096
0.0450000017881393
0.0280000008642673
0.0659999996423721
0.034000001847744
0.0419999994337559
0.063000001013279
0.0900000035762787
0.0640000030398369
0.028999999165535
0.034000001847744
0.0240000002086163
0.0939999967813492
0.0729999989271164
0.0949999988079071
0.0549999997019768
0.0820000022649765
0.0850000008940697
0.141000002622604
0.0839999988675117
0.112000003457069
0.0359999984502792
0.0350000001490116
0.0579999983310699
0.0430000014603138
0.0780000016093254
0.0480000004172325
0.0729999989271164
0.061999998986721
0.0419999994337559
0.0590000003576279
0.0439999997615814
0.0230000000447035
0.0379999987781048
0.0549999997019768
0.0649999976158142
0.0890000015497208
0.0419999994337559
0.0579999983310699
0.096000000834465
0.025000000372529
0.090999998152256
0.13400000333786
0.046000000089407
0.090999998152256
0.0879999995231628
0.0419999994337559
0.10700000077486
0.0209999997168779
0.0379999987781048
0.0820000022649765
0.0240000002086163
0.0299999993294477
0.00300000002607703
0.025000000372529
0.0590000003576279
0.00800000037997961
0.0560000017285347
0.104999996721745
0.0560000017285347
0.0590000003576279
0.0579999983310699
0.0930000022053719
0.109999999403954
0.0540000014007092
0.0579999983310699
0.109999999403954
0.0769999995827675
0.034000001847744
0.0439999997615814
0.101000003516674
0.101000003516674
0.0729999989271164
0.0670000016689301
0.119000002741814
0.104999996721745
0.061999998986721
0.0860000029206276
0.0529999993741512
0.0750000029802322
0.068000003695488
-0.00600000005215406
0.0529999993741512
0.0640000030398369
0.0750000029802322
0.0729999989271164
0.061999998986721
0.0930000022053719
0.0740000009536743
0.130999997258186
0.12899999320507
0.118000000715256
0.0590000003576279
0.0520000010728836
0.0869999974966049
0.0309999994933605
0.028999999165535
0.0419999994337559
0.0270000007003546
0.0810000002384186
0.0230000000447035
0.0109999999403954
0.103000000119209
0.0520000010728836
0.0260000005364418
0.017000000923872
0.0439999997615814
0.0930000022053719
0.0829999968409538
0.0850000008940697
0.0379999987781048
0.0659999996423721
0.0750000029802322
0.096000000834465
0.0689999982714653
0.0820000022649765
0.0750000029802322
0.034000001847744
0.063000001013279
0.00300000002607703
0.0759999975562096
0.0560000017285347
0.0489999987185001
0.104999996721745
0.0799999982118607
0.0280000008642673
0.101000003516674
0.0430000014603138
0.12899999320507
0.0719999969005585
0.115000002086163
0.0799999982118607
0.0829999968409538
0.0829999968409538
0.0149999996647239
0.0410000011324883
0.0890000015497208
0.0590000003576279
0.0719999969005585
0.096000000834465
0.119000002741814
0.0189999993890524
0.063000001013279
0.0780000016093254
0.0309999994933605
0.12899999320507
0.0410000011324883
0.034000001847744
0.0430000014603138
0.0520000010728836
0.0710000023245811
0.0759999975562096
0.0729999989271164
0.0780000016093254
0.0659999996423721
0.0590000003576279
0.0769999995827675
0.0379999987781048
0.0700000002980232
0.0280000008642673
0.0140000004321337
0.025000000372529
0.0199999995529652
0.0230000000447035
0.0949999988079071
0.0240000002086163
0.068000003695488
0.0979999974370003
0.0839999988675117
0.0850000008940697
0.0700000002980232
0.0729999989271164
0.0480000004172325
0.0710000023245811
0.0549999997019768
0.0790000036358833
0.0590000003576279
0.0740000009536743
0.0640000030398369
0.0410000011324883
0.137999996542931
0.0750000029802322
0.0489999987185001
0.119999997317791
0.0810000002384186
0.133000001311302
0.0659999996423721
0.0160000007599592
0.0719999969005585
0.0209999997168779
0.00300000002607703
0.034000001847744
0.0649999976158142
0.0719999969005585
0.0799999982118607
0.068000003695488
0.0790000036358833
0.0939999967813492
0.0329999998211861
0.0640000030398369
0.112000003457069
0.0450000017881393
0.108000002801418
-0.017000000923872
0.0520000010728836
0.0500000007450581
0.0270000007003546
0.0240000002086163
0.0979999974370003
0.0939999967813492
0.0949999988079071
0.0930000022053719
0.0370000004768372
0.0599999986588955
0.0790000036358833
0.0700000002980232
0.0829999968409538
0.00700000021606684
0.0930000022053719
0.0939999967813492
0.028999999165535
0.028999999165535
0.0900000035762787
0.0700000002980232
0.122000001370907
0.122000001370907
0.105999998748302
0.0860000029206276
0.0469999983906746
0.0920000001788139
0.0820000022649765
0.0439999997615814
0.0540000014007092
0.0829999968409538
0.0430000014603138
0.116999998688698
0.0640000030398369
0.0900000035762787
0.0850000008940697
0.0920000001788139
0.0810000002384186
-0.0120000001043081
0.0529999993741512
0.0659999996423721
0.0579999983310699
0.090999998152256
0.0700000002980232
0.0759999975562096
0.104000002145767
0.0500000007450581
0.104000002145767
0.0560000017285347
0.0469999983906746
0.0610000006854534
0.00300000002607703
-0.00100000004749745
-0.0199999995529652
-0.0130000002682209
0.0599999986588955
0.0020000000949949
0.108999997377396
0.0810000002384186
0.0790000036358833
0.0860000029206276
0.0869999974966049
0.0900000035762787
0.0700000002980232
0.0670000016689301
0.0689999982714653
0.137999996542931
0.104999996721745
0.131999999284744
0.10700000077486
0.100000001490116
0.096000000834465
-0.00300000002607703
0.0329999998211861
0.0579999983310699
-0.00999999977648258
-0.0109999999403954
-0.0399999991059303
0.00700000021606684
0.0219999998807907
-0.0130000002682209
-0.017000000923872
0.0439999997615814
0.0260000005364418
0.090999998152256
0.0489999987185001
0.103000000119209
0.114000000059605
0.116999998688698
0.140000000596046
0.123999997973442
0.114000000059605
0.136000007390976
0.10700000077486
0.122000001370907
0.0850000008940697
0.0109999999403954
0.101999998092651
0.0740000009536743
0.061999998986721
0.0820000022649765
0.0750000029802322
0.00700000021606684
-0.00100000004749745
0.0659999996423721
0.0399999991059303
0.0590000003576279
0.0270000007003546
0.0839999988675117
0.0719999969005585
0.0869999974966049
0.0890000015497208
0.123999997973442
0.125
0.125
0.11599999666214
0.11599999666214
0.14300000667572
0.0599999986588955
0.0869999974966049
0.105999998748302
0.0430000014603138
0.0560000017285347
0.0130000002682209
0.0450000017881393
0.0109999999403954
-0.0270000007003546
-0.0179999992251396
-0.0179999992251396
0.046000000089407
0.0160000007599592
0.0450000017881393
0.0309999994933605
0.0900000035762787
0.090999998152256
0.0700000002980232
0.0390000008046627
0.096000000834465
0.0979999974370003
0.0989999994635582
0.0659999996423721
0.0700000002980232
0.0509999990463257
0.0379999987781048
0.0189999993890524
0.0529999993741512
0.0430000014603138
0.103000000119209
0.0399999991059303
0.061999998986721
0.112000003457069
0.0540000014007092
0.0670000016689301
0.0970000028610229
0.034000001847744
0.0890000015497208
0.0829999968409538
0.0740000009536743
0.0529999993741512
0.0860000029206276
0.0149999996647239
0.0299999993294477
0.0979999974370003
0.0670000016689301
-0.00700000021606684
0.063000001013279
0.0439999997615814
0.00899999961256981
0.0820000022649765
0.046000000089407
0.0540000014007092
0.0280000008642673
0.0769999995827675
0.0700000002980232
0.0780000016093254
0.0240000002086163
0.0780000016093254
0.0670000016689301
0.0670000016689301
0.0410000011324883
0.061999998986721
0.0829999968409538
0.0780000016093254
0.0419999994337559
0.0320000015199184
0.0599999986588955
0.025000000372529
-0.0160000007599592
0.0560000017285347
0.028999999165535
0.0850000008940697
0.046000000089407
0.0480000004172325
0.0450000017881393
0.0130000002682209
0.0599999986588955
0.0199999995529652
0.0149999996647239
0.0769999995827675
0.0399999991059303
0.0230000000447035
0.0130000002682209
0.0729999989271164
0.0590000003576279
0.0759999975562096
0.0549999997019768
0.034000001847744
0.0590000003576279
0.129999995231628
0.096000000834465
0.0599999986588955
0.0810000002384186
0.017000000923872
0.0729999989271164
0.103000000119209
0.0430000014603138
0.103000000119209
0.0869999974966049
0.068000003695488
0.0419999994337559
0.0719999969005585
0.0590000003576279
0.0989999994635582
0.0900000035762787
0.0970000028610229
0.104999996721745
0.111000001430511
0.0520000010728836
0.0740000009536743
0.158999994397163
0.122000001370907
0.0920000001788139
0.100000001490116
0.0299999993294477
0.0590000003576279
0.0419999994337559
0.0189999993890524
0.0710000023245811
0.0209999997168779
0.0540000014007092
0.0920000001788139
0.046000000089407
0.0780000016093254
0.0399999991059303
0.0399999991059303
0.0949999988079071
0.090999998152256
0.0769999995827675
0.104000002145767
0.0489999987185001
0.0759999975562096
0.145999997854233
0.0689999982714653
0.068000003695488
0.148000001907349
0.0820000022649765
0.0670000016689301
0.0540000014007092
0.0729999989271164
0.0489999987185001
0.0399999991059303
0.0810000002384186
0.0350000001490116
0.0750000029802322
0.111000001430511
0.0240000002086163
0.0469999983906746
0.116999998688698
0.0750000029802322
0.0370000004768372
0.0860000029206276
0.0520000010728836
0.0740000009536743
0.0450000017881393
0.0790000036358833
0.0140000004321337
0.0399999991059303
0.0700000002980232
0.0799999982118607
0.0759999975562096
0.128000006079674
0.0700000002980232
0.103000000119209
0.0509999990463257
0.025000000372529
0.0640000030398369
0.0890000015497208
0.068000003695488
0.0350000001490116
0.0549999997019768
0.0729999989271164
0.0670000016689301
0.109999999403954
0.0670000016689301
0.109999999403954
0.159999996423721
0.0710000023245811
0.0480000004172325
0.0729999989271164
0.104000002145767
0.0280000008642673
0.068000003695488
0.034000001847744
0.0790000036358833
0.00400000018998981
0.0160000007599592
0.0520000010728836
0.0480000004172325
0.0860000029206276
0.0829999968409538
0.0439999997615814
0.0410000011324883
0.0359999984502792
0.0549999997019768
0.0560000017285347
0.0020000000949949
0.0820000022649765
0.0920000001788139
0.0509999990463257
0.100000001490116
0.0649999976158142
0.0450000017881393
0.0659999996423721
0.101000003516674
0.096000000834465
0.00499999988824129
0.0299999993294477
0.101000003516674
0.0379999987781048
0.0209999997168779
0.122000001370907
0.0379999987781048
0.0869999974966049
0.0579999983310699
0.0610000006854534
0.0890000015497208
0.068000003695488
0.0270000007003546
0.0839999988675117
0.0719999969005585
0.0930000022053719
0.0860000029206276
0.0179999992251396
0.0439999997615814
0.118000000715256
-0.028999999165535
0.0729999989271164
0.0649999976158142
0.034000001847744
0.0659999996423721
0.0649999976158142
0.0509999990463257
0.0879999995231628
0.0869999974966049
0.0719999969005585
0.0719999969005585
0.0430000014603138
0.0359999984502792
0.0810000002384186
0.115000002086163
0.0860000029206276
0.123999997973442
0.0590000003576279
0.0579999983310699
0.0869999974966049
0.0759999975562096
0.136999994516373
0.0370000004768372
0.0560000017285347
0.0780000016093254
0.0529999993741512
0.0219999998807907
0.063000001013279
0.0640000030398369
0.0780000016093254
0.0729999989271164
0.0799999982118607
0.0320000015199184
0.0359999984502792
0.108000002801418
0.0939999967813492
0.0309999994933605
0.0240000002086163
0.0670000016689301
0.0529999993741512
0.0540000014007092
0.0579999983310699
0.0480000004172325
0.0439999997615814
0.0410000011324883
0.0350000001490116
0.0820000022649765
0.0260000005364418
0.0689999982714653
0.112999998033047
0.0649999976158142
0.0780000016093254
0.0700000002980232
0.0590000003576279
0.0610000006854534
0.0419999994337559
0.160999998450279
0.11599999666214
0.0540000014007092
0.0350000001490116
0.0189999993890524
0.0979999974370003
0.096000000834465
0.0560000017285347
0.125
0.028999999165535
0.0759999975562096
0.101999998092651
0.090999998152256
0.063000001013279
0.0839999988675117
0.0430000014603138
0.0540000014007092
0.112000003457069
0.0370000004768372
0.0299999993294477
0.0729999989271164
0.0860000029206276
0.0829999968409538
0.0769999995827675
0.0799999982118607
0.0780000016093254
0.0640000030398369
0.0850000008940697
0.0810000002384186
0.0810000002384186
0.109999999403954
0.150000005960464
0.0439999997615814
0.063000001013279
0.0869999974966049
0.0549999997019768
0.0790000036358833
0.0199999995529652
0.0410000011324883
0.0930000022053719
0.0520000010728836
0.136999994516373
0.063000001013279
0.0230000000447035
0.061999998986721
0.0750000029802322
0.0399999991059303
0.120999999344349
0.104999996721745
0.0579999983310699
0.0970000028610229
0.0890000015497208
0.0509999990463257
0.00499999988824129
0.0329999998211861
0.0989999994635582
0.0729999989271164
0.0359999984502792
0.0439999997615814
0.0759999975562096
-0.00300000002607703
0.0979999974370003
0.0740000009536743
0.068000003695488
0.0399999991059303
0.0920000001788139
0.0799999982118607
0.0719999969005585
0.0839999988675117
0.0879999995231628
0.0719999969005585
0.0570000000298023
0.11599999666214
0.0920000001788139
0.0529999993741512
0.115000002086163
0.105999998748302
0.090999998152256
0.0350000001490116
0.0570000000298023
0.0939999967813492
-0.00100000004749745
0.0689999982714653
0.125
0.0410000011324883
0.116999998688698
0.108000002801418
0.0549999997019768
0.0590000003576279
0.0610000006854534
0.0769999995827675
0.0560000017285347
0.0920000001788139
0.0529999993741512
0.0320000015199184
0.0509999990463257
0.0920000001788139
0.0970000028610229
0.0309999994933605
0.0860000029206276
0.0759999975562096
0.061999998986721
0.0790000036358833
0.0469999983906746
0.0790000036358833
0.0700000002980232
0.116999998688698
0.0839999988675117
0.104999996721745
0.068000003695488
0.0989999994635582
0.046000000089407
0.0520000010728836
0.0480000004172325
0.0179999992251396
0.0570000000298023
0.108000002801418
0.061999998986721
0.0370000004768372
0.0450000017881393
0.101999998092651
0.0489999987185001
0.0670000016689301
0.0750000029802322
0.108999997377396
0.0659999996423721
0.0719999969005585
0.0820000022649765
0.0520000010728836
-0.00800000037997961
0.104999996721745
0.0509999990463257
0.0860000029206276
0.025000000372529
0.101000003516674
0.0979999974370003
0.0130000002682209
0.123000003397465
0.122000001370907
0.0759999975562096
0.090999998152256
0.063000001013279
0.0640000030398369
0.0879999995231628
0.0700000002980232
0.0399999991059303
0.0219999998807907
0.0370000004768372
0.0560000017285347
0.0560000017285347
0.0379999987781048
0.101999998092651
0.061999998986721
0.034000001847744
0.0489999987185001
0.0799999982118607
0.0879999995231628
0.111000001430511
0.0640000030398369
0.0740000009536743
0.0750000029802322
0.0500000007450581
0.0560000017285347
0.0489999987185001
0.0529999993741512
0.0640000030398369
0.0540000014007092
0.0379999987781048
0.0610000006854534
0.0219999998807907
0.0439999997615814
0.0850000008940697
0.0839999988675117
0.0780000016093254
0.0820000022649765
0.0359999984502792
0.0939999967813492
0.0509999990463257
0.0379999987781048
0.0610000006854534
0.0430000014603138
0.0390000008046627
0.063000001013279
0.0560000017285347
0.0549999997019768
0.0640000030398369
0.0700000002980232
0.0549999997019768
0.0820000022649765
0.0439999997615814
0.0860000029206276
0.0209999997168779
0.112000003457069
0.00600000005215406
0.0439999997615814
0.104999996721745
0.0780000016093254
0.0689999982714653
0.0560000017285347
0.0780000016093254
0.0729999989271164
0.0769999995827675
0.0540000014007092
0.0839999988675117
0.0320000015199184
0.0970000028610229
0.108999997377396
0.0829999968409538
0.100000001490116
0.0410000011324883
0.0379999987781048
0.0379999987781048
0.0189999993890524
0.0149999996647239
0.0729999989271164
0.104000002145767
0.0450000017881393
0.0430000014603138
0.0599999986588955
0.046000000089407
0.108000002801418
0.0970000028610229
0.00700000021606684
0.0160000007599592
0.0189999993890524
0.0399999991059303
0.10700000077486
0.0759999975562096
0.119000002741814
0.0590000003576279
0.0829999968409538
0.063000001013279
0.0489999987185001
0.0529999993741512
0.0670000016689301
0.0329999998211861
0.0359999984502792
0.0750000029802322
0.0649999976158142
0.0219999998807907
0.0659999996423721
0.0610000006854534
0.0540000014007092
0.0610000006854534
0.0769999995827675
0.0489999987185001
0.0189999993890524
0.0500000007450581
0.068000003695488
0.0710000023245811
0.0850000008940697
0.116999998688698
0.0790000036358833
0.0970000028610229
0.0700000002980232
0.0719999969005585
0.068000003695488
0.0439999997615814
0.0710000023245811
0.0439999997615814
0.028999999165535
0.090999998152256
0.0410000011324883
0.0900000035762787
0.0640000030398369
0.0860000029206276
0.0329999998211861
0.101000003516674
0.0560000017285347
0.0560000017285347
0.105999998748302
0.0769999995827675
0.0450000017881393
0.0579999983310699
0.0399999991059303
0.0590000003576279
0.0829999968409538
0.0270000007003546
0.063000001013279
0.0769999995827675
0.0979999974370003
0.0769999995827675
0.0359999984502792
0.0759999975562096
0.0379999987781048
0.0670000016689301
0.12899999320507
0.0769999995827675
0
0.0280000008642673
0.0359999984502792
0.0540000014007092
0.0689999982714653
0.0689999982714653
0.0729999989271164
0.0529999993741512
0.0500000007450581
0.025000000372529
0.017000000923872
0.0610000006854534
0.0839999988675117
0.0549999997019768
0.0989999994635582
0.0359999984502792
0.090999998152256
0.0700000002980232
0.0740000009536743
0.0209999997168779
0.090999998152256
0.046000000089407
0.0509999990463257
0.0599999986588955
0.0520000010728836
0.0430000014603138
0.0189999993890524
0.0790000036358833
-0.0109999999403954
0.104000002145767
0.0860000029206276
0.0199999995529652
0.0740000009536743
0.0160000007599592
0.0780000016093254
0.0579999983310699
0.0439999997615814
0.0350000001490116
0.0419999994337559
0.0860000029206276
0.0839999988675117
0.0769999995827675
0.0719999969005585
0.114000000059605
0.0979999974370003
0.0979999974370003
0.0489999987185001
0.0769999995827675
0.0869999974966049
0.0179999992251396
0.0869999974966049
0.0309999994933605
0.0549999997019768
0.0570000000298023
0.0540000014007092
0.0939999967813492
0.0850000008940697
0.0649999976158142
0.0799999982118607
0.0710000023245811
0.0829999968409538
0.0900000035762787
0.104000002145767
0.0799999982118607
0.0480000004172325
0.0820000022649765
0.0750000029802322
0.0540000014007092
0.108000002801418
0.0379999987781048
0.028999999165535
0.0740000009536743
0.0740000009536743
0.0320000015199184
0.0790000036358833
0.0689999982714653
0.100000001490116
0.0529999993741512
0.0299999993294477
0.0829999968409538
0.0579999983310699
0.0719999969005585
0.0410000011324883
0.0719999969005585
0.0729999989271164
0.0430000014603138
0.103000000119209
0.0350000001490116
0.0579999983310699
0.0719999969005585
0.0469999983906746
0.0759999975562096
0.103000000119209
0.100000001490116
0.101000003516674
0.0820000022649765
0.0939999967813492
0.0570000000298023
0.0719999969005585
0.0839999988675117
0.0790000036358833
0.0309999994933605
0.137999996542931
0.0900000035762787
0.063000001013279
0.0740000009536743
0.0520000010728836
0.0820000022649765
0.101000003516674
0.140000000596046
0.0719999969005585
0.0649999976158142
0.0160000007599592
0.034000001847744
0.0390000008046627
0.0689999982714653
0.034000001847744
0.0419999994337559
0.0719999969005585
0.0920000001788139
0.0740000009536743
0.0850000008940697
0.140000000596046
0.0740000009536743
0.0350000001490116
0.0549999997019768
0.0729999989271164
0.0430000014603138
0.0130000002682209
0.0740000009536743
0.034000001847744
0.0729999989271164
0.0430000014603138
0.0799999982118607
0.0590000003576279
0.0590000003576279
0.0399999991059303
0.028999999165535
0.10700000077486
0.0590000003576279
0.061999998986721
0.12899999320507
0.0610000006854534
0.0890000015497208
0.0640000030398369
0.0769999995827675
0.090999998152256
-0.0270000007003546
0.0640000030398369
0.0509999990463257
0.0430000014603138
0.0710000023245811
0.046000000089407
0.025000000372529
0.0419999994337559
0.0810000002384186
0.0359999984502792
0.0829999968409538
0.0839999988675117
0.100000001490116
0.0799999982118607
0.0260000005364418
0.0480000004172325
0.0160000007599592
0.0599999986588955
0.063000001013279
0.0850000008940697
0
0.11599999666214
0.0469999983906746
0.00300000002607703
0.0860000029206276
0.0750000029802322
0.0649999976158142
0.0670000016689301
0.0299999993294477
0.0599999986588955
0.0230000000447035
0.00999999977648258
0.0949999988079071
-0.0160000007599592
0.0379999987781048
0.0549999997019768
0.0759999975562096
0.0399999991059303
0.123999997973442
0.0520000010728836
0.0989999994635582
0.0189999993890524
0.0219999998807907
0.0179999992251396
0.0549999997019768
0.0480000004172325
0.131999999284744
-0.0140000004321337
0.0799999982118607
0.0659999996423721
0.0769999995827675
0.0850000008940697
0.0729999989271164
0.0299999993294477
0.061999998986721
0.0570000000298023
0.0370000004768372
0.0780000016093254
0.0450000017881393
0.0839999988675117
0.101999998092651
0.0729999989271164
0.0949999988079071
0.100000001490116
0.0820000022649765
0.0799999982118607
0.0769999995827675
0.0219999998807907
0.0790000036358833
0.0719999969005585
0.0270000007003546
0.0689999982714653
0.0769999995827675
0.11599999666214
0.0989999994635582
0.0469999983906746
0.116999998688698
0.0820000022649765
0.0920000001788139
0.104000002145767
0.0670000016689301
0.0610000006854534
0.104000002145767
0.100000001490116
0.0610000006854534
0.0700000002980232
0.090999998152256
0.0829999968409538
0.0439999997615814
0.0670000016689301
0.0399999991059303
0.0469999983906746
0.0879999995231628
0.119000002741814
0.0270000007003546
0.0649999976158142
0.0520000010728836
0.0599999986588955
0.0500000007450581
0.0930000022053719
0.120999999344349
0.0869999974966049
-0.00899999961256981
0.0610000006854534
0.0769999995827675
0.0379999987781048
0.0820000022649765
0.0299999993294477
0.0529999993741512
0.0549999997019768
0.028999999165535
0.0689999982714653
0.0649999976158142
0.0900000035762787
0.0570000000298023
0.0610000006854534
0.0780000016093254
0.0759999975562096
0.0399999991059303
0.0469999983906746
0.0450000017881393
0.0879999995231628
0.0419999994337559
0.0890000015497208
0.114000000059605
0.0989999994635582
0.0810000002384186
0.0130000002682209
0.0649999976158142
0.0670000016689301
0.046000000089407
0.0540000014007092
0.0370000004768372
0.0570000000298023
0.104000002145767
0.130999997258186
0.0489999987185001
0.119000002741814
0.0759999975562096
0.0240000002086163
0.0759999975562096
0.00800000037997961
0.0700000002980232
0.0670000016689301
0.0410000011324883
0.0740000009536743
0.028999999165535
0.0469999983906746
0.104999996721745
0.0659999996423721
0.0160000007599592
0.0450000017881393
0.0610000006854534
0.0869999974966049
0.0520000010728836
0.0399999991059303
0.0970000028610229
0.0500000007450581
0.0549999997019768
0.0590000003576279
0.0659999996423721
0.0579999983310699
0.0780000016093254
0.0799999982118607
0.0640000030398369
0.112000003457069
0.0970000028610229
0.0560000017285347
0.0939999967813492
0.0640000030398369
0.0780000016093254
0.0799999982118607
0.0719999969005585
0.0480000004172325
0.0599999986588955
0.0839999988675117
0.0970000028610229
0.0769999995827675
0.0390000008046627
0.0419999994337559
0.0850000008940697
0.0430000014603138
0.0750000029802322
0.0240000002086163
0.0410000011324883
0.090999998152256
0.104000002145767
0.0529999993741512
0.0879999995231628
0.063000001013279
0.017000000923872
0.10700000077486
0.025000000372529
0.0570000000298023
0.0610000006854534
0.0700000002980232
0.0949999988079071
0.0729999989271164
0.0850000008940697
0.0509999990463257
0.0489999987185001
0.068000003695488
0.0640000030398369
0.101999998092651
-0.0020000000949949
0.090999998152256
0.0590000003576279
0.00300000002607703
0.0599999986588955
0.0299999993294477
0.0309999994933605
0.0839999988675117
0.0529999993741512
0.0750000029802322
0.0820000022649765
0.063000001013279
0.0570000000298023
0.0489999987185001
0.0320000015199184
0.0579999983310699
0.0970000028610229
0.0179999992251396
0.028999999165535
0.068000003695488
0.0700000002980232
0.017000000923872
0.0450000017881393
0.0810000002384186
0.0799999982118607
0.0270000007003546
0.0790000036358833
0.0209999997168779
0.061999998986721
0.0599999986588955
0.0599999986588955
0.0710000023245811
0.0419999994337559
0.0799999982118607
0.0590000003576279
0.068000003695488
0.0199999995529652
0.0430000014603138
0.0850000008940697
0.0599999986588955
0.149000003933907
0.150999993085861
0.0579999983310699
0.0649999976158142
0.0729999989271164
0.108999997377396
0.0120000001043081
0.0309999994933605
0.125
0.136999994516373
0.0949999988079071
0.0869999974966049
0.0640000030398369
0.0520000010728836
0.101999998092651
0.101999998092651
0.0540000014007092
0.0670000016689301
0.0869999974966049
0.096000000834465
0.0810000002384186
0.0700000002980232
0.0509999990463257
0.0590000003576279
0.034000001847744
0.0549999997019768
0.0790000036358833
0.0799999982118607
0.0280000008642673
0.0979999974370003
0.0740000009536743
0.0390000008046627
0.0780000016093254
0.0579999983310699
0.0710000023245811
0.0700000002980232
0.0520000010728836
0.0710000023245811
0.112999998033047
0.0590000003576279
0.0199999995529652
0.0549999997019768
0.063000001013279
0.0750000029802322
0.0480000004172325
0.028999999165535
0.105999998748302
0.0869999974966049
0.0520000010728836
0.0520000010728836
0.0670000016689301
-0.0230000000447035
0.0509999990463257
0.0570000000298023
0.0740000009536743
0.0989999994635582
0.0260000005364418
0.0120000001043081
0.0329999998211861
0.00600000005215406
0.0509999990463257
0.0659999996423721
0.0480000004172325
0.0540000014007092
0.0540000014007092
0.0649999976158142
0.0570000000298023
0.0540000014007092
0.0780000016093254
0.0270000007003546
0.0450000017881393
0.0769999995827675
0.090999998152256
0.0419999994337559
0.0989999994635582
0.0599999986588955
0.0700000002980232
0.0799999982118607
0.0839999988675117
0.0560000017285347
0.0450000017881393
0.0989999994635582
0.0930000022053719
0.063000001013279
0.0729999989271164
0.0489999987185001
0.046000000089407
0.0560000017285347
0.0879999995231628
0.046000000089407
0.0920000001788139
0.0350000001490116
0.0810000002384186
0.104999996721745
0.0750000029802322
0.0390000008046627
0.104000002145767
0.0890000015497208
0.0430000014603138
0.0979999974370003
0.0799999982118607
0.0520000010728836
0.0500000007450581
0.034000001847744
0.105999998748302
0.0780000016093254
0.0740000009536743
0.0520000010728836
0.0230000000447035
0.061999998986721
0.0750000029802322
0.0299999993294477
0.0509999990463257
0.0270000007003546
0.0359999984502792
0.0560000017285347
0.101999998092651
-0.0020000000949949
0.0450000017881393
0.0230000000447035
0.0350000001490116
0.0810000002384186
0.0570000000298023
0.0489999987185001
0.0329999998211861
0.0500000007450581
0.0890000015497208
0.0659999996423721
0.0240000002086163
0.0869999974966049
0.101000003516674
0.128000006079674
0.0829999968409538
0.090999998152256
0.0469999983906746
0.101000003516674
0.0659999996423721
0.0509999990463257
0.0130000002682209
0.0270000007003546
0.0900000035762787
0.0780000016093254
0.0689999982714653
0.096000000834465
0.063000001013279
0.0280000008642673
0.108000002801418
0.0439999997615814
0.0520000010728836
0.0500000007450581
0.0020000000949949
0.108999997377396
0.0759999975562096
0.0869999974966049
0.0489999987185001
0.0509999990463257
0.104999996721745
0.0579999983310699
-0.00999999977648258
0.028999999165535
0.0700000002980232
0.0299999993294477
0.0780000016093254
0.0399999991059303
0.100000001490116
0.061999998986721
0.0670000016689301
0.112000003457069
0.0529999993741512
0.034000001847744
0.061999998986721
0.0450000017881393
0.0879999995231628
0.0430000014603138
0.0829999968409538
0.0350000001490116
0.0469999983906746
0.101999998092651
0.034000001847744
0.0700000002980232
0.0769999995827675
0.0579999983310699
0.0410000011324883
0.0419999994337559
0.0759999975562096
0.0900000035762787
0.0659999996423721
0.0769999995827675
0.0480000004172325
0.0610000006854534
0.0649999976158142
0.0280000008642673
0.0700000002980232
0.0659999996423721
0.104000002145767
0.100000001490116
0.103000000119209
0.0649999976158142
-0.0280000008642673
0.0469999983906746
0.0489999987185001
0.0410000011324883
0.0560000017285347
0.0939999967813492
0.0370000004768372
0.0480000004172325
0.0649999976158142
0.0689999982714653
0.0520000010728836
0.0780000016093254
0.0729999989271164
0.0309999994933605
0.0700000002980232
0.0489999987185001
0.0419999994337559
0.0810000002384186
0.0359999984502792
0.105999998748302
0.119000002741814
0.108999997377396
0.0780000016093254
0.101999998092651
0.096000000834465
0.148000001907349
0.046000000089407
0.0829999968409538
0.0529999993741512
0.0759999975562096
0.0970000028610229
0.0780000016093254
0.0469999983906746
0.0949999988079071
0.0590000003576279
0.0799999982118607
0.0740000009536743
-0.017000000923872
0.0560000017285347
0.0590000003576279
0.0410000011324883
0.046000000089407
-0.00899999961256981
0.0480000004172325
0.0860000029206276
0.0740000009536743
0.0829999968409538
0.0329999998211861
0.0379999987781048
0.0719999969005585
0.034000001847744
0.0769999995827675
0.0270000007003546
0.0500000007450581
0.063000001013279
0.0750000029802322
0.068000003695488
0.0780000016093254
0.0920000001788139
0.0790000036358833
0.0379999987781048
0.0820000022649765
0.0450000017881393
0.0839999988675117
0.0900000035762787
0.034000001847744
0.0949999988079071
0.108000002801418
0.0729999989271164
0.12899999320507
0.0480000004172325
0.0659999996423721
0.0689999982714653
0.0240000002086163
0.12899999320507
0.0560000017285347
0.00600000005215406
0.0309999994933605
0.063000001013279
0.0350000001490116
0.0750000029802322
0.0199999995529652
0.0769999995827675
0.0280000008642673
0.0540000014007092
0.101999998092651
0.0390000008046627
0.063000001013279
0.0350000001490116
0.0710000023245811
0.0979999974370003
0.108999997377396
0.101999998092651
0.101000003516674
0.0729999989271164
0.0750000029802322
0.105999998748302
0.0320000015199184
-0.0179999992251396
0.0549999997019768
0.063000001013279
0.0579999983310699
0.0659999996423721
0.0740000009536743
0.0850000008940697
0.0590000003576279
0.0410000011324883
0.0540000014007092
0.0900000035762787
0.025000000372529
0.133000001311302
0.0299999993294477
0.0930000022053719
0.090999998152256
0.0219999998807907
0.0570000000298023
0.108999997377396
0.0410000011324883
0.0860000029206276
0.0970000028610229
0.0759999975562096
0.118000000715256
0.0780000016093254
0.0219999998807907
0.0750000029802322
0.104999996721745
0.063000001013279
0.0850000008940697
0.0480000004172325
0
0.0780000016093254
0.0780000016093254
0.0799999982118607
0.0850000008940697
0.0560000017285347
0.123000003397465
0.0860000029206276
0.0829999968409538
0.0850000008940697
0.0549999997019768
0.0329999998211861
0.0719999969005585
0.090999998152256
0.0299999993294477
0.0549999997019768
0.0839999988675117
0.101999998092651
0.0419999994337559
0.0520000010728836
0.0280000008642673
0.0710000023245811
0.0839999988675117
0.0769999995827675
0.0570000000298023
0.0780000016093254
0.0120000001043081
0.0659999996423721
0.0309999994933605
0.0790000036358833
0.0780000016093254
0.111000001430511
0.0350000001490116
0.0469999983906746
0.0450000017881393
0.0299999993294477
0.0560000017285347
0.0320000015199184
0.068000003695488
0.0590000003576279
0.0529999993741512
0.0329999998211861
0.0410000011324883
0.0480000004172325
0.0769999995827675
0.141000002622604
0.0740000009536743
0.0500000007450581
0.0599999986588955
0.0390000008046627
0.0610000006854534
0.0769999995827675
0.0769999995827675
0.0780000016093254
0.0219999998807907
0.11599999666214
0.0610000006854534
0.0659999996423721
0.096000000834465
0.0230000000447035
0.10700000077486
0.103000000119209
0.0649999976158142
0.0780000016093254
0.0430000014603138
0.0160000007599592
0.0900000035762787
0.133000001311302
0.0949999988079071
0.0900000035762787
0.0850000008940697
0.096000000834465
0.0820000022649765
0.0520000010728836
0.0240000002086163
0.0790000036358833
0.0610000006854534
0.104999996721745
0.0839999988675117
0.0260000005364418
0.0769999995827675
-0.0020000000949949
0.0329999998211861
0.061999998986721
0.0570000000298023
0.0700000002980232
0.0750000029802322
0.0219999998807907
0.0700000002980232
0.0820000022649765
0.0370000004768372
0.0410000011324883
0.0949999988079071
0.017000000923872
0.0410000011324883
0.0529999993741512
0.0439999997615814
0.0590000003576279
0.0640000030398369
0.0329999998211861
0.0540000014007092
0.0540000014007092
0.068000003695488
0.0949999988079071
0.0540000014007092
0.127000004053116
0.118000000715256
0.0700000002980232
0.0299999993294477
0.0579999983310699
0.118000000715256
0.103000000119209
0.0860000029206276
0.0890000015497208
0.0829999968409538
0.046000000089407
0.0659999996423721
0.0320000015199184
0.0540000014007092
0.0689999982714653
0.034000001847744
0.063000001013279
0.0509999990463257
0.046000000089407
0.0869999974966049
0.017000000923872
0.0390000008046627
0.0750000029802322
0.112999998033047
0.0670000016689301
0.0829999968409538
0.0740000009536743
0.0799999982118607
0.119000002741814
0.0390000008046627
0.0419999994337559
0.0189999993890524
0.0700000002980232
0.0700000002980232
0.0540000014007092
0.0759999975562096
0.104000002145767
0.0149999996647239
0.0560000017285347
0.108999997377396
0.0799999982118607
0.101999998092651
0.0540000014007092
0.0480000004172325
0.0529999993741512
0.063000001013279
-0.0020000000949949
0.0489999987185001
0.0649999976158142
0.00499999988824129
0.0419999994337559
0.0480000004172325
0.0399999991059303
0.0570000000298023
0.0439999997615814
0.0280000008642673
0.063000001013279
0.0799999982118607
0.0740000009536743
0.0599999986588955
0.0230000000447035
0.0399999991059303
0.0740000009536743
0.0509999990463257
0.0879999995231628
0.0540000014007092
0.0489999987185001
0.0829999968409538
0.0670000016689301
0.0719999969005585
0.0799999982118607
0.0869999974966049
0.0810000002384186
0.0719999969005585
0.0399999991059303
0.063000001013279
0.0160000007599592
0.0560000017285347
0.0670000016689301
-0.00499999988824129
0.0659999996423721
0.0509999990463257
0.0480000004172325
0.0579999983310699
0.0529999993741512
0.0350000001490116
0.0520000010728836
0.119000002741814
0.0790000036358833
0.0769999995827675
0.0780000016093254
0.0649999976158142
0.10700000077486
0.0700000002980232
0.068000003695488
0.0700000002980232
0.0599999986588955
0.10700000077486
0.0500000007450581
0.0799999982118607
0.0640000030398369
0.0350000001490116
0.0469999983906746
0.0509999990463257
0.0740000009536743
0.0700000002980232
0.0500000007450581
0.068000003695488
0.0839999988675117
0.0759999975562096
0.0560000017285347
0.116999998688698
0.0890000015497208
0.0769999995827675
0.0879999995231628
0.0989999994635582
0.0829999968409538
0.0430000014603138
0.0140000004321337
0.0750000029802322
0.0649999976158142
0.101000003516674
0.0820000022649765
0.0549999997019768
0.0750000029802322
0.0670000016689301
0.0939999967813492
0.090999998152256
0.0320000015199184
0.0670000016689301
0.0879999995231628
0.0649999976158142
0.0590000003576279
0.0560000017285347
0.0780000016093254
0.111000001430511
0.0750000029802322
0.068000003695488
0.133000001311302
0.0829999968409538
0.063000001013279
0.116999998688698
0.0649999976158142
0.0130000002682209
0.0860000029206276
0.0549999997019768
0.0700000002980232
0.0579999983310699
0.0529999993741512
0.0199999995529652
0.00100000004749745
0.0549999997019768
0.090999998152256
0.0419999994337559
0.0439999997615814
0.0750000029802322
0.0320000015199184
0.0649999976158142
0.068000003695488
0.0769999995827675
0.0500000007450581
0.0939999967813492
0.0560000017285347
0.0759999975562096
0.0759999975562096
0.0799999982118607
0.115000002086163
0.141000002622604
0.046000000089407
0.100000001490116
0.0560000017285347
0.153999999165535
0.0520000010728836
0.0179999992251396
0.0750000029802322
0.0179999992251396
0.0769999995827675
0.125
0.0270000007003546
0.0689999982714653
0.0700000002980232
0.0780000016093254
0.108999997377396
0.0829999968409538
0.0419999994337559
0.0970000028610229
0.0560000017285347
0.0850000008940697
0.112999998033047
0.0750000029802322
0.108000002801418
0.0860000029206276
0.0130000002682209
0.0860000029206276
0.0890000015497208
0.00700000021606684
0.0599999986588955
0.028999999165535
0.0750000029802322
0.0759999975562096
-0.00100000004749745
0.063000001013279
0.0670000016689301
0.0540000014007092
0.0659999996423721
0.0500000007450581
0.0500000007450581
0.135000005364418
0.063000001013279
0.0390000008046627
0.112999998033047
0.0500000007450581
0.0570000000298023
0.11599999666214
0.0189999993890524
0.0419999994337559
0.0419999994337559
0.0949999988079071
0.0500000007450581
0.0719999969005585
0.0710000023245811
0.0850000008940697
0.0590000003576279
0.068000003695488
0.100000001490116
0.0390000008046627
0.0750000029802322
0.0970000028610229
0.0710000023245811
0.101999998092651
0.0529999993741512
0.0839999988675117
0.0570000000298023
0.0610000006854534
0.103000000119209
0.0860000029206276
0.0560000017285347
0.101999998092651
0.0710000023245811
-0.0280000008642673
0.034000001847744
0.0579999983310699
0.0890000015497208
0.0829999968409538
0.122000001370907
0.0890000015497208
0.11599999666214
0.061999998986721
0.0820000022649765
0.0549999997019768
0.0120000001043081
0.068000003695488
0.068000003695488
0.0579999983310699
0.0130000002682209
0.0750000029802322
0.0799999982118607
0.0869999974966049
0.0750000029802322
0.0729999989271164
0.103000000119209
0.0179999992251396
0.0879999995231628
0.0280000008642673
0.0989999994635582
0.122000001370907
0.0540000014007092
0.046000000089407
0.100000001490116
0.0399999991059303
0.0320000015199184
0.0500000007450581
0.0529999993741512
0.0780000016093254
0.0920000001788139
0.0529999993741512
0.0350000001490116
0.0359999984502792
0.0379999987781048
0.0710000023245811
0.0689999982714653
0.0719999969005585
0.0500000007450581
0.0920000001788139
0.0769999995827675
0.0439999997615814
0.0659999996423721
0.0570000000298023
0.0820000022649765
0.0610000006854534
0.131999999284744
0.034000001847744
0.0810000002384186
0.0930000022053719
0.0480000004172325
0.0930000022053719
0.126000002026558
0.0379999987781048
0.0189999993890524
0.156000003218651
0.118000000715256
0.0989999994635582
0.122000001370907
0.0900000035762787
0.0020000000949949
0.0140000004321337
0.0769999995827675
0.0930000022053719
0.0469999983906746
0.0939999967813492
0.0839999988675117
0.061999998986721
0.017000000923872
0.0820000022649765
0.0729999989271164
0.0350000001490116
0.0719999969005585
0.120999999344349
0.0829999968409538
0.0540000014007092
0.0670000016689301
0.0689999982714653
0.0359999984502792
0.0260000005364418
0.0020000000949949
0.0729999989271164
0.0590000003576279
0.0379999987781048
0.0399999991059303
0.0719999969005585
0.0320000015199184
0.0179999992251396
0.025000000372529
0.017000000923872
0.0599999986588955
0.0930000022053719
0.068000003695488
0.126000002026558
0.0489999987185001
0.0640000030398369
0.0860000029206276
0.0890000015497208
0.0970000028610229
0.120999999344349
0.0230000000447035
0.0939999967813492
0.0869999974966049
0.0199999995529652
0.0480000004172325
0.0469999983906746
0.0900000035762787
0.0759999975562096
0.128000006079674
0.0979999974370003
0.0450000017881393
0.028999999165535
0.101000003516674
0.068000003695488
0.0599999986588955
0.0829999968409538
0.0469999983906746
0.122000001370907
0.140000000596046
0.0879999995231628
0.0649999976158142
0.116999998688698
0.0140000004321337
0.144999995827675
0.108999997377396
0.0939999967813492
0.136999994516373
0.100000001490116
0.00999999977648258
0.0419999994337559
0.0780000016093254
0.0370000004768372
0.0729999989271164
0.025000000372529
0.0799999982118607
0.123000003397465
0.0230000000447035
0.0649999976158142
0.0790000036358833
0.104000002145767
0.122000001370907
0.0579999983310699
0.0799999982118607
0.0799999982118607
0.0610000006854534
0.0640000030398369
0.12899999320507
0.0670000016689301
0.068000003695488
0.0570000000298023
0.068000003695488
0.0710000023245811
0.104000002145767
0.104000002145767
0.0799999982118607
0.0120000001043081
0.0750000029802322
0.0399999991059303
0.0570000000298023
0.128000006079674
0.0879999995231628
0.068000003695488
0.119999997317791
0.0260000005364418
0.0640000030398369
0.068000003695488
0.034000001847744
0.0299999993294477
0.0329999998211861
0.0130000002682209
0.0689999982714653
0.0439999997615814
0.104000002145767
0.0949999988079071
0.0160000007599592
0.063000001013279
0.0930000022053719
0.123000003397465
0.0649999976158142
0.0240000002086163
0.0570000000298023
0.0729999989271164
0.0299999993294477
0.0109999999403954
0.034000001847744
0.0230000000447035
0.0350000001490116
0.0979999974370003
0.0780000016093254
0.101999998092651
0.0879999995231628
0.017000000923872
0.0890000015497208
0.0610000006854534
0.0149999996647239
0.0869999974966049
0.0689999982714653
0.0689999982714653
0.0879999995231628
0.0780000016093254
0.0489999987185001
0.0649999976158142
0.0379999987781048
0.0399999991059303
0.034000001847744
0.0379999987781048
0.0419999994337559
0.105999998748302
0.0570000000298023
0.0839999988675117
0.0179999992251396
0.063000001013279
0.0149999996647239
0.0549999997019768
0.00600000005215406
0.0560000017285347
0.0160000007599592
0.0570000000298023
0.0560000017285347
0.0309999994933605
0.101999998092651
0.0439999997615814
0.0130000002682209
0.0799999982118607
0.00100000004749745
0.0640000030398369
0.128000006079674
0.0700000002980232
0.090999998152256
0.122000001370907
0.0299999993294477
0.0700000002980232
0.112000003457069
0.0590000003576279
0.0989999994635582
0.0560000017285347
0.0280000008642673
0.068000003695488
0.0399999991059303
0.0829999968409538
0.00899999961256981
0.0410000011324883
0.0390000008046627
0.0140000004321337
0.0320000015199184
0.0529999993741512
0.0469999983906746
0.0860000029206276
0.0759999975562096
0.0879999995231628
0.0989999994635582
0.116999998688698
0.0149999996647239
0.0309999994933605
0.0240000002086163
0.0579999983310699
0.0599999986588955
0.0189999993890524
0.0729999989271164
0.0469999983906746
0.0410000011324883
0.0700000002980232
0.0450000017881393
0.0240000002086163
0.0390000008046627
0.0299999993294477
0.096000000834465
0.034000001847744
0.0799999982118607
0.0230000000447035
0.114000000059605
0.0549999997019768
0.0860000029206276
0.0489999987185001
-0.0109999999403954
0.0509999990463257
0.0740000009536743
0.0949999988079071
0.0529999993741512
0.0450000017881393
0.0320000015199184
0.0260000005364418
0.0410000011324883
0.0540000014007092
0.0529999993741512
0.0309999994933605
0.0810000002384186
0.0900000035762787
0.0370000004768372
0.101000003516674
0.0729999989271164
0.101999998092651
0.0860000029206276
0.0309999994933605
0.028999999165535
0.0920000001788139
0.0659999996423721
0.063000001013279
0.0659999996423721
0.0659999996423721
0.101999998092651
0.125
0.0649999976158142
0.0430000014603138
0.0240000002086163
0.0640000030398369
0.0820000022649765
0.0520000010728836
0.0509999990463257
0.0670000016689301
0.0480000004172325
0.0729999989271164
0.0469999983906746
0.0500000007450581
0.0659999996423721
0.0469999983906746
0.0649999976158142
0.103000000119209
0.130999997258186
0.0670000016689301
0.0829999968409538
0.103000000119209
0.0410000011324883
0.0979999974370003
0.0399999991059303
0.0260000005364418
0.0710000023245811
0.061999998986721
0.105999998748302
0.115000002086163
0.0179999992251396
0.0590000003576279
0.0299999993294477
0.0610000006854534
0.063000001013279
0.0839999988675117
0.0529999993741512
0.0689999982714653
0.025000000372529
0.061999998986721
0.0439999997615814
0.0750000029802322
0.0509999990463257
0.0750000029802322
0.0879999995231628
0.108000002801418
0.105999998748302
0.0750000029802322
0.0920000001788139
0.0970000028610229
0.0640000030398369
0.0719999969005585
0.0879999995231628
0.0549999997019768
0.0989999994635582
0.0419999994337559
0.0590000003576279
0.0710000023245811
0.0270000007003546
0.063000001013279
0.0500000007450581
0.0500000007450581
0.00600000005215406
0.0540000014007092
0.0930000022053719
0.061999998986721
0.0480000004172325
0.0949999988079071
0.0500000007450581
0.0850000008940697
0.0689999982714653
0.0610000006854534
0.0869999974966049
0.0759999975562096
0.0710000023245811
0.0710000023245811
0.0549999997019768
0.0399999991059303
0.0810000002384186
0.0579999983310699
0.0979999974370003
0.0509999990463257
0.0419999994337559
0.068000003695488
0.0529999993741512
0.0260000005364418
0.0509999990463257
0.00100000004749745
0.0689999982714653
0.0590000003576279
0.0710000023245811
0.0970000028610229
0.025000000372529
0.0710000023245811
0.0500000007450581
0.0509999990463257
0.111000001430511
0.0729999989271164
0.0820000022649765
0.0860000029206276
0.0710000023245811
0.0869999974966049
0.0729999989271164
0.0370000004768372
0.0879999995231628
0.0869999974966049
0.0260000005364418
0.0689999982714653
0.100000001490116
0.0430000014603138
0.0790000036358833
0.0839999988675117
0.0230000000447035
0.0700000002980232
0.0769999995827675
0.0810000002384186
0.0670000016689301
0.0520000010728836
0.0410000011324883
0.0740000009536743
0.125
0.0379999987781048
0.0390000008046627
0.046000000089407
0.046000000089407
0.0540000014007092
0.0570000000298023
0.0560000017285347
0.0719999969005585
0.0989999994635582
0.0689999982714653
0.0520000010728836
0.0740000009536743
0.0649999976158142
0.0430000014603138
0.0280000008642673
0.0829999968409538
0.0590000003576279
0.101999998092651
0.123999997973442
0.0579999983310699
0.0120000001043081
0.068000003695488
0.0979999974370003
0.108999997377396
0.104000002145767
0.0979999974370003
0.0260000005364418
0.0199999995529652
0.108999997377396
0.028999999165535
0.0489999987185001
0.0230000000447035
0.00899999961256981
0.0260000005364418
0.0649999976158142
0.017000000923872
0.063000001013279
0.0780000016093254
0.0759999975562096
0.118000000715256
0.0549999997019768
0.120999999344349
0.0850000008940697
0.0769999995827675
0.108000002801418
-0.0120000001043081
0.068000003695488
0.0359999984502792
0.0599999986588955
0.063000001013279
0.0930000022053719
0.0670000016689301
0.138999998569489
0.061999998986721
0.00999999977648258
0.0719999969005585
0.00600000005215406
0.0489999987185001
0.0689999982714653
0.0920000001788139
0.0879999995231628
0.0869999974966049
0.0769999995827675
0.0740000009536743
0.0890000015497208
0.0750000029802322
0.0450000017881393
0.028999999165535
0.0209999997168779
0.0359999984502792
0.025000000372529
0.109999999403954
0.0850000008940697
0.0890000015497208
0.0780000016093254
0.0810000002384186
0.0209999997168779
0.0570000000298023
0.0750000029802322
0.0419999994337559
0.0700000002980232
0.0399999991059303
0.0350000001490116
0.046000000089407
0.0509999990463257
0.0209999997168779
0.0230000000447035
0.068000003695488
0.0769999995827675
0.0560000017285347
0.0790000036358833
0.0879999995231628
0.0500000007450581
0.0700000002980232
-0.00100000004749745
0.0599999986588955
0.0670000016689301
0.0710000023245811
0.046000000089407
0.112000003457069
0.00400000018998981
0.0329999998211861
0.090999998152256
0.0489999987185001
0.0399999991059303
0.0520000010728836
0.0520000010728836
0.0799999982118607
0.0920000001788139
0.0700000002980232
0.0920000001788139
0.101999998092651
0.0379999987781048
0.0829999968409538
0.114000000059605
0.0900000035762787
0.0120000001043081
0.0890000015497208
0.0689999982714653
0.0790000036358833
0.0700000002980232
0.068000003695488
0.0509999990463257
0.0549999997019768
0.0450000017881393
0.0570000000298023
0.0480000004172325
0.0379999987781048
0.0160000007599592
0.0560000017285347
0.0729999989271164
0.0799999982118607
0.0469999983906746
0.0199999995529652
0.0850000008940697
0.0509999990463257
0.0839999988675117
0.0839999988675117
0.0949999988079071
0.103000000119209
0.118000000715256
0.0780000016093254
0.0750000029802322
0.0540000014007092
0.0659999996423721
0.0199999995529652
0.0469999983906746
0.0489999987185001
0.0759999975562096
0.0480000004172325
0.0839999988675117
0.10700000077486
0.0529999993741512
0.0879999995231628
0.0659999996423721
0.0930000022053719
0.0560000017285347
0.101999998092651
0.0710000023245811
0.0520000010728836
0.0710000023245811
0.0399999991059303
0.0260000005364418
0.0350000001490116
0.0710000023245811
0.046000000089407
0.0149999996647239
0.0469999983906746
0.0430000014603138
0.0670000016689301
0.100000001490116
0.0599999986588955
0.0599999986588955
0.068000003695488
0.0769999995827675
0.0989999994635582
0.130999997258186
0.0219999998807907
0.0850000008940697
0.0350000001490116
0.0419999994337559
0.10700000077486
0.116999998688698
0.0799999982118607
0.0810000002384186
0.061999998986721
0.0710000023245811
0.0109999999403954
0.0920000001788139
0.096000000834465
0.0450000017881393
0.0469999983906746
0.0480000004172325
0.0810000002384186
0.0979999974370003
0.0640000030398369
0.0820000022649765
0.0700000002980232
0.0590000003576279
0.0570000000298023
0.0799999982118607
0.090999998152256
0.109999999403954
0.0869999974966049
0.0410000011324883
0.112000003457069
0.0540000014007092
0.0769999995827675
0.151999995112419
0.028999999165535
0.0329999998211861
0.0419999994337559
0.0549999997019768
0.136000007390976
0.0549999997019768
0.063000001013279
0.136999994516373
0.0780000016093254
0.10700000077486
0.13400000333786
0.0540000014007092
0.0820000022649765
0.0649999976158142
0.0520000010728836
0.0860000029206276
0.0379999987781048
0.061999998986721
0.0439999997615814
0.0240000002086163
0.108000002801418
0.0659999996423721
0.0419999994337559
0.0570000000298023
0.0230000000447035
0.0450000017881393
0.0890000015497208
0.0149999996647239
0.090999998152256
0.0869999974966049
0.0469999983906746
0.114000000059605
0.0320000015199184
0.0759999975562096
0.0719999969005585
0.101000003516674
0.0719999969005585
0.0869999974966049
0.0750000029802322
0.101000003516674
0.0850000008940697
0.0719999969005585
0.0689999982714653
0.0410000011324883
0.108999997377396
0.108999997377396
0.0799999982118607
0.0520000010728836
0.0839999988675117
0.0790000036358833
0.0549999997019768
0.0240000002086163
0.0430000014603138
0.101999998092651
0.0750000029802322
-0.00999999977648258
0.028999999165535
0.0379999987781048
0.0430000014603138
0.0599999986588955
0.0260000005364418
0.0160000007599592
0.0359999984502792
0.0320000015199184
0.0489999987185001
0.0350000001490116
0.105999998748302
0.0920000001788139
0.0140000004321337
0.0659999996423721
0.0659999996423721
0.0610000006854534
0.100000001490116
0.0560000017285347
0.0850000008940697
0.0700000002980232
0.0140000004321337
0.0700000002980232
0.0890000015497208
0.0270000007003546
0.0780000016093254
0.0529999993741512
0.0879999995231628
0.0979999974370003
0.00999999977648258
0.0570000000298023
0.0900000035762787
0.0649999976158142
0.00100000004749745
0.090999998152256
0.0579999983310699
0.0520000010728836
0.108000002801418
0.0689999982714653
0.0949999988079071
0.0879999995231628
0.0970000028610229
0.0820000022649765
0.0209999997168779
0.105999998748302
0.104999996721745
0.0560000017285347
0.0759999975562096
0.0540000014007092
0.0810000002384186
0.0710000023245811
0.0370000004768372
0.0799999982118607
0.116999998688698
0.061999998986721
0.0419999994337559
0.0890000015497208
0.0450000017881393
0.120999999344349
0.0640000030398369
0.0260000005364418
0.0309999994933605
0.0379999987781048
0.105999998748302
0.115000002086163
0.0299999993294477
0.0649999976158142
0.0379999987781048
0.0949999988079071
0.0599999986588955
0.0879999995231628
0.101000003516674
0.0549999997019768
0.0820000022649765
0.0759999975562096
0.0450000017881393
0.0640000030398369
0.0949999988079071
0.0419999994337559
0.11599999666214
0.0869999974966049
0.0359999984502792
0.0299999993294477
0.0700000002980232
0.0379999987781048
0.0769999995827675
0.0850000008940697
0.090999998152256
0.0590000003576279
0.028999999165535
0.0430000014603138
0.0439999997615814
0.108999997377396
0.0729999989271164
0.0390000008046627
0.0869999974966049
0.125
0.0610000006854534
0.0390000008046627
0.0759999975562096
0.0309999994933605
0.111000001430511
0.0989999994635582
0.0489999987185001
0.0520000010728836
0.0240000002086163
0.0579999983310699
0.0900000035762787
0.0480000004172325
0.0480000004172325
0.0769999995827675
0.068000003695488
0.0560000017285347
-0.00600000005215406
0.0430000014603138
0.0860000029206276
0.061999998986721
0.0729999989271164
0.0540000014007092
0.0740000009536743
0.0430000014603138
0.0120000001043081
0.0299999993294477
0.0729999989271164
0.101999998092651
0.104000002145767
0.0179999992251396
0.0430000014603138
0.104000002145767
0.0590000003576279
0.0520000010728836
0.0659999996423721
0.112999998033047
0.0799999982118607
0.0189999993890524
0.0549999997019768
0.0989999994635582
0.0610000006854534
0.0799999982118607
0.0560000017285347
0.0710000023245811
0.0509999990463257
0.0130000002682209
0.0579999983310699
0.0750000029802322
0.0640000030398369
0.0549999997019768
0.108999997377396
0.0439999997615814
0.0970000028610229
0.0689999982714653
0.0480000004172325
0.108000002801418
0.046000000089407
0.00899999961256981
0.0469999983906746
0.101000003516674
0.0759999975562096
0.0659999996423721
0.0109999999403954
0.0890000015497208
0.0659999996423721
0.0439999997615814
0.0350000001490116
0.0140000004321337
0.00999999977648258
0.0419999994337559
0.0970000028610229
0.0930000022053719
0.0450000017881393
0.0579999983310699
0.0610000006854534
0.0489999987185001
0.0450000017881393
0.034000001847744
0.0270000007003546
0.0790000036358833
0.0890000015497208
0.0820000022649765
0.096000000834465
0.0299999993294477
0.108000002801418
0.090999998152256
0.0529999993741512
0.063000001013279
0.090999998152256
0.0759999975562096
0.123999997973442
0.0549999997019768
0.0640000030398369
0.0869999974966049
0.063000001013279
-0.0020000000949949
0.0820000022649765
0.0370000004768372
0.0780000016093254
0.0640000030398369
0.046000000089407
0.0120000001043081
0.0560000017285347
0.0610000006854534
0.0540000014007092
0.0410000011324883
0.115000002086163
0.116999998688698
0.0740000009536743
0.0729999989271164
0.0810000002384186
0.0839999988675117
0.0540000014007092
0.0240000002086163
0.0799999982118607
0.0750000029802322
0.0480000004172325
0.0489999987185001
0.143999993801117
0.0390000008046627
0.0659999996423721
0.151999995112419
0.0970000028610229
0.0489999987185001
0.0439999997615814
0.0640000030398369
0.0670000016689301
0.0439999997615814
0.0700000002980232
0.0670000016689301
0.104000002145767
0.160999998450279
0.0740000009536743
0.0390000008046627
0.034000001847744
0.0659999996423721
0.120999999344349
0.101000003516674
0.063000001013279
0.0810000002384186
0.0750000029802322
0.0020000000949949
0.0740000009536743
0.090999998152256
0.125
0.0370000004768372
0.0469999983906746
0.0689999982714653
0.0799999982118607
0.101999998092651
0.034000001847744
0.0890000015497208
0.0829999968409538
0.0320000015199184
0.0529999993741512
0.0480000004172325
0.0590000003576279
0.00700000021606684
0.0670000016689301
0.0579999983310699
0.0879999995231628
0.0869999974966049
0
0.0549999997019768
0.0820000022649765
0.0270000007003546
0.14300000667572
0.0179999992251396
0.101999998092651
0.0740000009536743
0.0140000004321337
0.0769999995827675
0.0529999993741512
0.0670000016689301
0.0689999982714653
-0.0179999992251396
0.096000000834465
0.0970000028610229
0.0750000029802322
0.0850000008940697
0.0309999994933605
0.0810000002384186
0.131999999284744
0.0320000015199184
0.0890000015497208
0.104999996721745
0.0509999990463257
0.0810000002384186
0.0320000015199184
0.063000001013279
0.0890000015497208
0.0489999987185001
0.0570000000298023
0.10700000077486
0.0489999987185001
0.100000001490116
0.0610000006854534
0.0529999993741512
0.112999998033047
0.061999998986721
0.0299999993294477
0.0890000015497208
0.0790000036358833
0.0299999993294477
0.0529999993741512
0.0590000003576279
0.0829999968409538
0.0850000008940697
0.0810000002384186
0.0599999986588955
0.0540000014007092
0.0610000006854534
0.0419999994337559
0.0759999975562096
0.0649999976158142
0.0379999987781048
0.0790000036358833
0.0579999983310699
0.0729999989271164
0.125
0.10700000077486
0.0710000023245811
0.123999997973442
0.0860000029206276
0.0410000011324883
0.0900000035762787
0.0509999990463257
0.0489999987185001
0.0869999974966049
0.063000001013279
0.0729999989271164
0.025000000372529
0.0469999983906746
0.0670000016689301
0.0579999983310699
0.0920000001788139
0.0489999987185001
0.0570000000298023
0.141000002622604
0.017000000923872
0.0489999987185001
0.115000002086163
0.0879999995231628
0.0520000010728836
0.028999999165535
0.0659999996423721
0.0659999996423721
0.0719999969005585
0.0689999982714653
0.0799999982118607
0.0280000008642673
0.034000001847744
0.0500000007450581
0.096000000834465
0.0659999996423721
0.0590000003576279
0.0480000004172325
0.0410000011324883
0.0750000029802322
0
0.0299999993294477
0.0399999991059303
0.0599999986588955
0.0570000000298023
0.0480000004172325
0.0450000017881393
0.0410000011324883
0.0260000005364418
0.090999998152256
0.046000000089407
0.0850000008940697
-0.0240000002086163
0.034000001847744
0.108000002801418
0.0790000036358833
0.0399999991059303
0.0939999967813492
0.0189999993890524
0.0780000016093254
0.0579999983310699
0.0199999995529652
0.0640000030398369
0.0860000029206276
0.0750000029802322
0.127000004053116
0.0590000003576279
0.105999998748302
0.0970000028610229
0.0480000004172325
0.0719999969005585
0.0309999994933605
0.0860000029206276
0.0320000015199184
0.0309999994933605
0.0869999974966049
0.116999998688698
0.0209999997168779
0.0540000014007092
0.0640000030398369
0.0469999983906746
0.0189999993890524
0.0700000002980232
0.0780000016093254
0.129999995231628
0.0989999994635582
0.0329999998211861
0.0839999988675117
0.0719999969005585
0.0839999988675117
-0.0240000002086163
0.0599999986588955
0.0570000000298023
0.0509999990463257
0.017000000923872
0.0590000003576279
0.028999999165535
0.0670000016689301
0.0130000002682209
0.100000001490116
0.135000005364418
0.0659999996423721
0.0540000014007092
0.0949999988079071
0.090999998152256
0.090999998152256
0.11599999666214
0.0529999993741512
0.0579999983310699
0.0769999995827675
0.127000004053116
0.100000001490116
0.063000001013279
0.119000002741814
0.00999999977648258
0.0350000001490116
0.0160000007599592
0.0419999994337559
0.0199999995529652
0.0810000002384186
0.0579999983310699
0.0949999988079071
0.0689999982714653
0.0610000006854534
0.0399999991059303
0.112000003457069
0.119999997317791
0.104999996721745
0.00999999977648258
0.115000002086163
-0.017000000923872
0.0590000003576279
0.111000001430511
0.0270000007003546
0.11599999666214
0.0489999987185001
0.063000001013279
0.068000003695488
0.00400000018998981
0.10700000077486
0.0120000001043081
0.0799999982118607
0.108000002801418
-0.0520000010728836
0.0939999967813492
0.017000000923872
-0.0209999997168779
0.166999995708466
0.0610000006854534
0.0700000002980232
0.108000002801418
-0.00800000037997961
0.123000003397465
0.126000002026558
-0.017000000923872
0.131999999284744
0.0729999989271164
0.0549999997019768
0.136000007390976
0.0379999987781048
-0.00899999961256981
0.114000000059605
0.0500000007450581
0.090999998152256
0.0780000016093254
-0.00100000004749745
0.0469999983906746
0.0740000009536743
0.0780000016093254
0.112000003457069
0.063000001013279
0.0850000008940697
0.00600000005215406
0.090999998152256
0.0579999983310699
0.0320000015199184
0.0860000029206276
0.104999996721745
0.0590000003576279
0.0890000015497208
0.100000001490116
0.0719999969005585
0.0350000001490116
0.0540000014007092
0.0780000016093254
-0.0199999995529652
0.0710000023245811
0.0769999995827675
0.0260000005364418
0.0610000006854534
0.0219999998807907
0.0160000007599592
0.0640000030398369
0.0769999995827675
0.0540000014007092
0.0560000017285347
0.0410000011324883
0.0329999998211861
0.0549999997019768
0.0659999996423721
0.0399999991059303
0.0799999982118607
0.0590000003576279
0.0430000014603138
0.0810000002384186
0.131999999284744
0.0540000014007092
0.025000000372529
0.0280000008642673
0.00899999961256981
0.11599999666214
0.0509999990463257
0.0560000017285347
0.0820000022649765
0.0240000002086163
0.101999998092651
0.0500000007450581
0.0590000003576279
0.0590000003576279
0.0379999987781048
0.0590000003576279
0.0439999997615814
0.0549999997019768
0.0769999995827675
0.0659999996423721
0.0900000035762787
0.0359999984502792
0.0359999984502792
0.0489999987185001
0.0659999996423721
0.0590000003576279
0.063000001013279
0.0949999988079071
0.0549999997019768
0.0780000016093254
0.0710000023245811
0.0719999969005585
0.0890000015497208
0.0579999983310699
0.0820000022649765
0.0599999986588955
0.0240000002086163
0.0930000022053719
0.0299999993294477
0.0769999995827675
0.10700000077486
0.0240000002086163
0.0750000029802322
0.0820000022649765
0.0879999995231628
0.10700000077486
0.0299999993294477
0.0549999997019768
0.00600000005215406
0.119999997317791
0.0390000008046627
0.0659999996423721
0.0670000016689301
0.0890000015497208
0.103000000119209
0.0820000022649765
0.0829999968409538
0.0329999998211861
0.0489999987185001
0.068000003695488
0.0750000029802322
0.0640000030398369
0.0750000029802322
0.0489999987185001
0.063000001013279
0.0570000000298023
0.0649999976158142
0.0729999989271164
0.0900000035762787
0.0879999995231628
0.0590000003576279
0.061999998986721
0.112999998033047
0.0430000014603138
0.0140000004321337
0.063000001013279
0.0480000004172325
0.112000003457069
0.0320000015199184
0.0920000001788139
0.116999998688698
0.0430000014603138
0.0890000015497208
0.0989999994635582
0.0970000028610229
0.111000001430511
0.0359999984502792
0.0520000010728836
0.0560000017285347
0.028999999165535
0.0320000015199184
0.0799999982118607
0.0240000002086163
0.0750000029802322
0.0729999989271164
0.0379999987781048
0.0900000035762787
0.0469999983906746
0.0149999996647239
0.120999999344349
0.00400000018998981
0.0820000022649765
0.0810000002384186
0.0740000009536743
0.0480000004172325
0.0450000017881393
0.0930000022053719
0.0939999967813492
0.0570000000298023
0.0489999987185001
0.0920000001788139
0.0390000008046627
0.0710000023245811
0.0890000015497208
0.028999999165535
0.0570000000298023
0.0219999998807907
0.0769999995827675
0.0920000001788139
-0.0949999988079071
0.409999996423721
-0.363999992609024
0.398000001907349
-0.0850000008940697
-0.0469999983906746
0.200000002980232
-0.0810000002384186
0.112999998033047
0.0450000017881393
0.0109999999403954
0.0489999987185001
0.0839999988675117
0.0520000010728836
0.145999997854233
0.00499999988824129
0.150999993085861
-0.0270000007003546
0.0599999986588955
0.0309999994933605
-0.0390000008046627
0.101000003516674
-0.00600000005215406
0.0839999988675117
0.0900000035762787
0.0390000008046627
0.101999998092651
0.0799999982118607
0.0390000008046627
0.0719999969005585
0.034000001847744
0.0410000011324883
0.00499999988824129
0.131999999284744
0.0590000003576279
0.0820000022649765
0.123999997973442
0.0529999993741512
0.14300000667572
0.0140000004321337
0.0799999982118607
0.0610000006854534
0.112000003457069
0.0850000008940697
0.0489999987185001
0.0370000004768372
0.0540000014007092
0.0540000014007092
0.0879999995231628
0.0509999990463257
0.0839999988675117
0.0689999982714653
0.0430000014603138
0.0869999974966049
0.063000001013279
0.00300000002607703
0.0790000036358833
0.0199999995529652
-0.0149999996647239
0.0890000015497208
0.0299999993294477
0.0750000029802322
0.0820000022649765
0.0670000016689301
0.0450000017881393
0.112000003457069
0.00600000005215406
0.143999993801117
-0.0020000000949949
0.0529999993741512
0.0689999982714653
0.0399999991059303
0.108999997377396
0.0670000016689301
0.0750000029802322
0.0500000007450581
0.0280000008642673
0.0549999997019768
0.0480000004172325
0.0209999997168779
0.126000002026558
0.00899999961256981
0.131999999284744
0.0869999974966049
0.0659999996423721
0.0869999974966049
0.0140000004321337
0.046000000089407
0.0939999967813492
0.0689999982714653
0.0689999982714653
0.0379999987781048
-0.0189999993890524
0.0469999983906746
0.0860000029206276
0.0399999991059303
0.0920000001788139
0.0350000001490116
0.0379999987781048
0.100000001490116
0.0659999996423721
0.0509999990463257
0.135000005364418
0.0780000016093254
0.142000004649162
0.068000003695488
0.0719999969005585
0.0480000004172325
0.0299999993294477
0.0370000004768372
0.0590000003576279
0.0570000000298023
0.125
0.0780000016093254
0.046000000089407
0.090999998152256
0.0320000015199184
0.063000001013279
0.0309999994933605
0.0599999986588955
0.14300000667572
0.034000001847744
0.0379999987781048
0.0900000035762787
0.0260000005364418
0.158000007271767
0.0199999995529652
0.131999999284744
0.114000000059605
0.0570000000298023
0.149000003933907
0.0350000001490116
0.0379999987781048
0.0270000007003546
0.0379999987781048
0.0270000007003546
0.0700000002980232
0.0839999988675117
0.0570000000298023
0.135000005364418
0.13400000333786
0.046000000089407
0.104999996721745
0.0379999987781048
0.126000002026558
0.0430000014603138
0.0649999976158142
0.0900000035762787
0.0370000004768372
0.0769999995827675
0.143999993801117
0.0120000001043081
0.160999998450279
0.0729999989271164
0.116999998688698
0.0780000016093254
-0.0149999996647239
0.140000000596046
0.0280000008642673
0.0540000014007092
0.0949999988079071
0.0109999999403954
0.0149999996647239
0.063000001013279
-0.00100000004749745
0.0810000002384186
0.0989999994635582
0.0599999986588955
0.0759999975562096
0.0869999974966049
0.0989999994635582
0.0570000000298023
0.0930000022053719
0.0260000005364418
0.0659999996423721
0.0320000015199184
0.0750000029802322
0.0729999989271164
0.0199999995529652
0.0599999986588955
0.0810000002384186
0.0689999982714653
0.0920000001788139
0.068000003695488
-0.00499999988824129
0.0920000001788139
0.0120000001043081
0.0900000035762787
0.0590000003576279
0.0379999987781048
0.0529999993741512
0.090999998152256
0.0590000003576279
0.144999995827675
0.0540000014007092
0.0610000006854534
0.136000007390976
-0.0149999996647239
0.0949999988079071
0.034000001847744
0.0659999996423721
0.0979999974370003
0.00100000004749745
0.153999999165535
0.10700000077486
-0.0299999993294477
0.142000004649162
0.00999999977648258
0.0500000007450581
0.0810000002384186
0.0299999993294477
0.174999997019768
0.0780000016093254
0.0359999984502792
0.12899999320507
0.0719999969005585
0.0430000014603138
0.0970000028610229
0.0329999998211861
0.0939999967813492
0.0769999995827675
0.0649999976158142
0.111000001430511
0.0719999969005585
0.063000001013279
0.116999998688698
0.0130000002682209
0.11599999666214
0.0379999987781048
0.0570000000298023
0.164000004529953
-0.0450000017881393
0.0900000035762787
0.0750000029802322
-0.0149999996647239
0.137999996542931
-0.00700000021606684
0.0769999995827675
0.12899999320507
0.0590000003576279
0.0900000035762787
0.0670000016689301
0.0130000002682209
0.0989999994635582
0.0179999992251396
0.0410000011324883
0.140000000596046
0
0.12899999320507
0.11599999666214
0.0219999998807907
0.127000004053116
0.028999999165535
0.034000001847744
0.0769999995827675
0.0199999995529652
0.0780000016093254
0.122000001370907
0.0329999998211861
0.0509999990463257
0.090999998152256
-0.0109999999403954
0.150999993085861
0.0820000022649765
0.017000000923872
0.153999999165535
-0.0500000007450581
0.145999997854233
0.0540000014007092
0.0320000015199184
0.0900000035762787
-0.017000000923872
0.131999999284744
0.0970000028610229
0.00899999961256981
0.155000001192093
